AccelerometerX,AccelerometerY,AccelerometerZ,GyroscopeX,GyroscopeY,GyroscopeZ,Trigger
24.835707650561634,-6.913215058559233,1032.3844269050346,15.230298564080254,-2.3415337472333597,-2.3413695694918055,0
78.96064077536957,38.37173645764544,976.5262807032524,5.425600435859646,-4.634176928124623,-4.657297535702568,0
12.098113578301707,-95.66401223288989,913.7541083743483,-5.622875292409727,-10.128311203344238,3.142473325952739,0
-45.40120377606055,-70.61518506676457,1073.2824384460778,-2.2577630048653567,0.6752820468792384,-14.247481862134567,0
-27.21913622625913,5.546129485493304,942.4503211288849,3.7569801834567196,-6.006386899188049,-2.916937497932768,0
-30.085330611469846,92.61390922544689,999.3251387631033,-10.577109289559004,8.22544912103189,-12.208436499710222,0
10.44317975023777,-97.98350619398877,933.5906975550785,1.9686123586912352,7.384665799954105,1.713682811899705,0
-5.782414119412026,-15.05518477946444,926.0739004816286,-7.198442083947087,-4.606387709597875,10.571222262189156,0
17.18091447842307,-88.1520077681367,1016.2041984697397,-3.8508228041631654,-6.769220003059587,6.116762888408679,0
51.549976124797546,46.564005955809925,958.039123838868,-3.092123758512146,3.3126343140356393,9.755451271223592,0
-23.958711892264496,-9.282948833190856,944.6832512996986,-11.962066240806708,8.12525822394198,13.562400285708229,0
-3.6005060790166925,50.17664489460121,1018.0818012523818,-6.451197546051243,3.6139560550841394,15.380365664659692,0
-1.7913019554975769,78.2321827907003,869.0127447955128,8.219025043752238,0.8704706823817122,-2.9900735046586746,0
4.588038826775115,-99.37844573004465,989.0164056081244,3.5711257151174642,14.778940447415161,-5.182702182736474,0
-40.42468014465938,-25.08785217922683,1045.7701058851037,3.2875110965968446,-5.297602037670388,5.132674331133561,0
4.853877467402019,48.43224952664446,964.8973453061324,-3.2766214659776822,-3.921081531321576,-14.635149481321186,0
14.806013853228803,13.052763608994466,1000.2556728321231,-2.345871333751469,-14.153707420504142,-4.20645322765359,0
-17.135725826338476,-40.113863461080946,991.9357144166995,4.040508568145384,18.861859012105302,1.7457781283183895,0
12.877519536138218,-3.7222957883083607,904.0614392350479,-0.2651387544921688,0.6023020994102644,24.63242112485286,0
-9.618048239056126,15.077367116680623,998.2644115147378,-11.68678037619532,11.428228145150205,7.519330326867742,0
39.55159735215234,-45.46937273973695,1070.139715546805,-14.018510627922808,5.868570938002703,21.904556258099785,0
-49.52681625653442,-28.314886480138597,1004.982568254382,-5.034756541161992,-15.506634310661326,0.6856297480602733,0
-53.115185686305246,23.67962153175908,954.0287882883099,15.499344050175395,-7.832532923362371,-3.220615162056756,0
40.67586086848349,-61.543215821697764,1011.3729967302065,13.071427542824281,-16.074832345612275,1.846338585323042,0
12.994139712421177,39.09114358886552,938.1524644560959,-13.204566130842764,5.219415656168977,2.9698467323318605,0
12.524642517293827,17.322410474848784,965.9987639210755,2.3225369716100355,2.9307247329868122,-7.143514180263678,0
93.28872555723783,23.691646045589376,940.4348251398676,6.565536086338297,-9.746816702273215,7.870846037424521,0
57.929778950370206,-41.034115917585524,1048.168806462216,4.127809269364983,8.2206015999449,18.967929826539475,0
-12.269405800143526,-37.68680821787448,955.5242785187238,-8.158102849654384,-0.771017094141042,3.4115197481664388,0
13.834539966500953,41.35916245180119,1000.6500945938953,14.535340771573168,-2.6465683323795606,27.20169166589619,0
31.283367388250312,-42.857877820814124,946.4553750969444,4.824724152431853,-2.234627853258509,7.14000494092092,0
23.66188122867724,-3.641445632843639,957.6603140965798,-15.148472246858645,-4.465149520670211,8.563987943234723,0
10.704687206510197,-62.2869389355994,1008.6590462925591,3.8531737972883677,-8.83857436201133,1.537251059455279,0
2.9104359222999947,-57.14851489153116,1017.8893680174142,5.607845263682344,10.83051243175277,10.53802052034903,0
-68.88346839785456,-46.891251995756136,1025.751763360433,5.137859509122088,5.150476863060479,38.52731490654721,0
28.544525534658348,56.778282009029944,1047.70008817466,6.51391251305798,-3.152692446403456,7.589692204932675,0
-38.64126072687859,-11.840930337000444,975.7318226085448,0.8187413938632255,23.146585666735085,-18.67265192591748,0
34.31300951872567,-80.63579355948258,976.4034067105283,10.88950596967366,0.6428001909546277,-10.77744777929306,0
-35.76518546299841,33.97988744673379,963.4816684141432,2.164585895819749,0.4557183990381378,-6.516003476058171,0
107.19720446626629,31.695951115900563,898.7428706671196,1.8645431476942764,-6.61786464768388,8.524333347962239,0
-39.626036921635034,-5.736822073344951,1025.2493639490228,8.657551941701215,-12.002964070557763,-3.345012358409484,0
-23.747265558047808,-32.666461628685596,1088.2727120140548,4.049817109609555,-12.608839543350452,9.17861947054776,0
106.10780985063167,51.62326302755734,924.0315017022994,-4.8423407286625135,12.669111491866227,-7.076694656187808,0
22.190971407311423,38.73170267146684,953.6534764210959,-0.5952535606180008,-32.41267340069073,-10.243876413342898,0
-12.628407569658014,-62.38915909824247,1081.6205651965818,-14.301413779606326,-4.4004448669698375,1.3074057728609134,0
72.06366445330578,-71.79310755897197,1058.158187607748,0.10233061019587049,-9.81508651047951,4.621034742632707,0
9.952984778673502,-30.010843857939733,1003.490104249501,-3.853135968617602,1.1351734525124804,6.621306745210466,0
79.3008408072676,-61.89077494134245,1106.6516687328133,-19.520877995225018,-1.5178509503558333,5.883172064845765,0
14.049593386751633,-31.13497599102969,989.5938874821362,-4.930009346588328,-5.893647569442115,8.496020970210246,0
17.850774298252368,-34.64547976303271,1044.9799937716625,3.0729952087660934,8.128621188389602,6.296288419236122,0
-41.449750546103616,-28.009052009848478,1037.3646802561632,6.103702654334649,-0.20901593964148132,1.1732738330878199,0
63.88324478942125,-29.578569441791497,1027.354869058502,-2.021926524338941,-2.1768120322722027,10.987768519871901,0
41.27081744940149,40.675481800031925,1065.2739403577164,0.2100384163275905,6.819529712949639,-3.1026675659345604,0
16.208317624422104,-6.507152718384229,1004.8497982496359,5.951570254369136,-8.182206832334725,20.923872756854603,0
-50.3008690749851,-60.70943063938661,1057.9055436750034,7.916626939629358,6.241198170521551,6.283455092642799,0
-0.6123386423457311,-44.86271857429158,1003.7902279096863,-6.771617115121117,9.751197334177512,-1.4705738150213865,0
-41.27485983962558,-16.06929208264967,1020.6465727137812,-5.637245528039747,-8.222203955664314,2.4368721149191233,0
12.248328555436139,-25.34715876855649,976.4480847190839,2.320499373576363,-14.480843414973242,-14.074637743765553,0
-35.9222110626218,-10.672357585592362,1015.5453782799002,14.75356216949552,8.576596232020194,-1.599385299634271,0
-0.9508103951344415,-50.12646823189044,999.0743432003806,-2.8865863892013834,3.227185603380895,-8.27230943552323,0
25.967325712058614,76.63694565012888,994.5619925771571,4.017117220989414,6.901439917111125,-4.012204718858363,0
11.204624090520838,0.629620039089743,1004.8838049274416,-7.730097838554665,0.24510174258942713,4.979982912454497,0
72.55718038975209,47.963541304260346,1107.6591228755779,-7.673475628880495,8.723206367206782,1.8334200573835173,0
109.49014666088361,-40.414914267757574,958.0139078909611,-5.9939264544402215,-21.23895724309807,-5.25755021680761,0
-37.9566330776849,7.519689323810382,1017.087798788858,18.761708392158862,9.504238381860503,-5.769036556624031,0
-44.9207335674179,24.595958575325287,933.9883396489679,18.314587658543537,11.79440120721287,-4.691756521047048,0
-85.65672645454387,67.69361870827065,994.2730077373691,12.378163119734618,-15.944276587943671,-5.993750229537729,0
0.2621849859091583,2.3490296882371027,977.4967264260379,6.2284993234749875,-10.676204293825943,-1.423794850212935,0
6.014781585594943,25.72194170293745,1035.5807439044445,-11.246420918378693,-15.341141707356222,12.77676821898509,0
16.615700598979583,-37.424326827827684,1077.557598776126,1.1567463429285867,11.792971840638264,0.6751848141010895,0
103.03739624409936,87.76704212216022,987.5517925760463,9.715709509543554,6.453759495851475,13.686315575323487,0
-48.24617302900522,34.30257299992196,1052.9212243424795,-17.587394864231143,-11.83258512665775,-20.392321777601005,0
-13.470341722227888,35.87711278979812,1075.1178526048013,0.7409478041977519,16.28615545571292,-13.801014582148914,0
-85.16912196775773,-2.777384944830939,1019.2032724469653,-0.3269474809409311,-20.674421000398766,-0.8912003951278841,0
-65.22347502524266,33.48362744150192,1018.3299123048424,-9.398797863273552,-5.138669173366935,-10.592135218889515,0
-3.1339548636585937,47.75711602506191,950.7136976832228,5.040465155178444,-5.302576183724408,-7.928728322623442,0
-5.351517997727892,-51.762116120968706,972.3175347326409,-11.978778925888484,19.647251329163893,0.35263551971728613,0
-34.98627539962928,10.6989955367111,994.3835975154585,-2.20969599533223,6.141667000434252,7.575077100473051,0
-26.525057380526373,-28.790912032234,986.2474151424178,-23.01921164735585,-15.151910621985522,13.668742674445246,0
82.24838567506418,-12.451801977818915,1028.8278481527884,3.112501545435361,30.78880808455238,11.195749114345768,0
-6.395879574038327,-47.777022030021286,919.6776839871213,2.034636358672231,-7.563507452843034,-14.222537095976742,0
-32.32864421212633,-54.07740018071975,1084.3570817536283,8.816397569494505,-0.07972641316617372,14.79944138890026,0
3.868415382380915,-43.06421006641318,1076.156203863483,5.3891004368465865,-10.372461543264563,-1.9033867808360818,0
-43.78091266923786,-69.1399865482168,1046.3088773765821,19.094166404701305,-13.985675738191413,5.629692366905709,0
-32.53212845609135,-24.3562691882348,970.3803037880565,-8.63990769679816,0.48521627944826995,-8.309501164110378,0
13.522841288991941,-2.5119054724568475,988.0525976566795,-9.07563662041598,-5.767713305683327,7.55391225825756,0
25.04585938121904,-48.877762239927556,1004.9666152714613,7.51387123371789,-16.694052811213716,5.43360192379935,0
-33.13118794729233,28.529933429657966,961.8370421728741,-18.04882100664519,-16.275424378831627,0.48084946661381994,0
12.986125086074093,-45.21583125522043,1031.9296229388688,-16.6152006226896,-0.6607979864731657,-12.110161997624566,0
-32.59180539010796,2.369933565820701,956.9793317358024,-3.8455554422982536,10.062928092144405,-5.768918695231488,0
41.78460560325709,-56.48534273288091,1026.4902088957642,14.415686206579004,-24.716445001272895,-7.968952554704768,0
28.853606359027,-10.152269302149634,1018.5572936685654,-6.039851867158205,0.8658978747289992,-1.5567723539207947,0
58.38910308299037,12.721042165060656,1016.8801331037602,-4.118769661224674,-4.876062240724935,-4.325581878196209,0
19.72260711891484,-21.049224041013147,1014.4887428448206,20.75400798645439,8.711247034316923,-3.2602353216784112,0
60.06069610819724,-20.40376865107757,898.0937732411073,-10.080863109174041,-18.707919210258556,-3.5151348404130864,0
0.920918959477585,83.82186561376413,1016.3463686882081,-2.1910052880886424,8.294055811834891,-22.11135309007885,0
11.780727905428297,38.54325969434834,926.070687711008,11.43754043206929,3.384964074944141,-4.152879139008013,0
31.63909330531424,113.5346428902198,1009.0933127529247,2.4822058630033608,-4.593608995402441,-8.498443694647918,0
41.51679082721228,-42.80419129544336,1003.5783118609696,-4.776574467651167,4.789798257463919,3.336621052869483,0
51.87699721289496,-25.50081994273735,986.5062532353314,-9.787637157823074,-4.442932600761116,3.773004930448522,0
37.84943083226759,-46.10826620888127,1043.480296005283,13.556378588049508,4.134349032237009,18.76795812558066,0
-38.68945995517865,-62.23273516557085,911.0639875547861,14.96044311489183,6.543656563540577,-0.5558467091045507,0
13.998431315991015,-56.27445236491882,1122.2875989808413,1.292211819752275,1.093947946048929,7.2576662389869195,0
24.050461586835663,11.19420121395657,960.4762772277344,4.7146835713599575,18.820244964750337,13.454200461549776,0
79.65933133196985,-25.56078382155926,950.519758987071,-1.2578692009964816,0.5572491228869461,10.941915184709485,0
-84.62323148574097,76.47751597303069,992.0996050710505,-4.2688106994742006,-10.121043752601675,-16.548566718657693,0
41.15852919809573,3.6658983594201944,935.5019550129473,-12.95078772063616,-3.3578469929012824,16.69021525289393,0
-12.97956756818024,-75.1571476559053,987.7128467957028,-2.7272356974767047,-26.968866429415716,-0.5429486651781221,0
-11.546726510433897,34.81031824067092,1092.4478047472674,11.265650295477574,-2.688886905548306,-11.065259087416702,0
128.66799016249303,2.960921700724413,1000.6964645956473,-0.24125087110003277,1.9808476076785495,-1.4436041192394247,0
-28.683100344011812,-27.342947062019608,998.3623364892001,-5.434247711337649,-7.128457826771644,1.0643022769189683,0
-12.748860871042764,75.19964942913442,867.4515095803495,10.915068519224619,12.460851924976291,-20.733902324081495,0
-17.134379704017437,-18.572043299789573,929.624415264109,-7.778166875908753,-11.105758454658288,17.52270443423623,0
46.783919657373055,63.577754749707935,1036.0836032021618,-11.290517712172292,-5.245202662797737,4.89374561227918,0
-61.10639044459727,35.6499215086194,987.9837300920932,-3.7482080754959752,7.109599682034915,4.4426331148603975,0
-18.048308290953997,57.9664901682124,945.9468336200051,6.159356069442637,5.931012579683838,-3.0954643931399026,0
16.3066511121059,-62.55567881926515,1046.201350960345,-1.8490213644298903,-5.227230205190395,10.490092258368893,0
-35.21718452713796,-70.42306481817798,922.1685413238048,6.060099513456397,-12.80429352496283,17.547941819843647,0
-104.0964703941861,84.82281841450191,1010.5508733601309,-0.9671311187039239,-5.449190868089497,3.9913611435207086,0
-1.8817351212424183,55.165094100826074,1005.711382433102,1.503017614618776,-3.6361221221385587,-0.5694562372106746,0
15.39008844460296,-85.50841963283128,932.5907288947144,7.43264094022715,1.7086543812794186,-1.8398333635267914,0
0.921696653269658,17.379085268083553,973.0120159845319,-7.783047254023127,1.9584525509768156,-9.78372777615032,0
20.412637785723593,-85.12918021189202,1051.4577818662822,4.7259748241304305,2.560297343138757,9.826909839455139,0
83.27372222312883,50.71850325090652,907.9562884334177,-12.795769667357016,-6.248185776956788,0.2609105021083379,0
25.88295102345615,-36.28719065767328,1009.338338223854,-7.5538293235332254,-6.115178029919482,-14.066610968482223,0
-46.161662305545214,-67.58423028081668,951.2063373511334,10.536417966078396,-9.49398888831943,26.323820648373907,0
24.66589504404446,9.241806184743695,957.0821109909393,7.003098794089913,-5.756378262377739,1.2200981464536145,0
128.00422691343974,-4.802994986232494,1057.4636663142837,-7.031764251258874,-0.349884904969617,17.7080063563551,0
-31.34835288938837,90.62242789984644,1035.3875967727738,-5.624667758942676,6.3240773905552095,9.725544496267299,0
31.09049811085982,-78.51123599452282,963.6431412087566,-2.4751863555150475,-0.7443342910004629,6.20672097550678,0
8.885050046662691,-66.76721793550506,1019.0098925502982,6.105857452838231,5.597904479310398,10.807807255546217,0
41.6961077274452,22.959003961421836,996.4917144270677,-16.609609335159913,4.296182191325858,2.0768768716311117,0
13.578941859768673,-63.83742879101547,945.9471729795869,10.531528533329036,-0.3955515385665504,6.815006973726244,0
1.4159188065230586,1.4878069747872595,1046.9141902988,-5.160447282173739,0.9612077694098337,-4.622752887050424,0
-21.72481137161578,-15.458606173431969,1011.1066885816856,-4.787486216634774,12.557561255735209,-8.946073022195039,0
-9.343582208067952,-21.986552913708746,1072.3488942176866,1.9655477651157462,10.318445394686348,-14.855603730369719,0
13.352513293462941,44.481539781171854,1004.1141994637712,10.654803750653512,-5.172884501003722,14.093474401855799,0
114.94490618096252,-18.141928021982952,977.7248739299614,14.533844771177009,15.795721457307124,-5.228600271532683,0
-21.009340854792864,-14.089230443025361,932.7774744482862,-9.186519464841982,-10.041407667520678,-7.677975651041285,0
-1.734244369339059,11.710736626826037,1077.5250246407038,-9.98354040738791,9.843223984765837,-2.1398884422550895,0
-2.4731854826216475,33.74097460833019,943.863898921885,3.824097461840506,1.6645220821305609,4.924512640081491,0
14.458432195390905,122.76500699554471,968.1130007874342,-5.3099695500181765,-6.231405264247644,-5.554771191602547,0
-31.869356365325885,59.45082655537759,1071.0252123994928,-5.707462937494762,-8.323555731042287,4.714155563864041,0
-27.611152214048563,31.646590887775538,1010.146151042565,-15.15744114997232,15.475052013300616,17.95877673095522,0
-30.63943452421931,-19.385077996799208,1014.2932695362452,3.34456789987025,6.585442726728305,20.102045387663495,0
-8.84736137470247,-39.914862226922686,931.0340385992737,-7.3093003994191905,-0.33126972873797095,17.945578635177878,0
-25.880564951808573,11.189397581944926,999.1788551963624,11.88393273448084,25.269324258736216,-5.308687729203206,0
-24.47197212591111,52.2080438534536,1034.0945744813155,18.467073257360337,5.839281853259639,-3.5929209078705955,0
29.532741534615464,55.43517902914539,1041.0241090598681,5.072740311072978,10.666746895891539,11.692955904456728,0
69.10794955187636,32.43549437948213,991.6440959841573,1.4671368643332283,12.065089665083569,-8.16935670987236,0
18.433665443645058,-19.666940616368034,1001.4372411467409,12.784518626072988,1.9109906801990335,0.4643654815614881,0
-67.99280704899596,37.31267830136103,1032.2742090570537,21.632547233054602,-3.0777823495300085,2.1915032766393896,0
12.469184185537763,78.87266398817371,995.2352233806524,2.7902152577033923,6.078965097165392,1.8660912315635811,0
-22.321680727526413,9.70449964491538,1053.6815874929887,-10.265152994110602,1.32969674146876,-7.001208149391732,0
59.752331446242124,-76.15934523918874,972.0539076364206,3.7721187506452085,15.655240292343404,-0.657502610729878,0
-27.759976334659918,94.0578534720295,927.5993049791878,-21.988059566200818,4.400144500533324,-5.020542243526112,0
-51.06164085653566,35.41782236496766,1012.19003568856,-5.640786307367284,-12.803043986708945,8.724573282801448,0
32.51005889793305,-4.958793188969145,1092.3318498023832,-10.700847663261525,-15.25525170924739,-6.9190806988124445,0
-2.27930081777489,12.166972466134592,987.9381971071836,3.520553965142968,-12.51539424190444,14.437646040732595,0
-4.10755891962844,55.86479157940638,1017.1362673188852,4.567532191537839,5.697672802322039,4.477085600173149,0
32.1361379933772,66.45762650662157,1009.8260584850735,7.090037575885123,-0.8973569428722672,14.401172154494727,0
-33.81961510296348,90.04702164554078,997.9921024677828,-14.307751021180481,1.2810441491078928,-6.810516574748808,0
42.032177449436205,-32.631198965119545,977.690828339261,-18.895407309455308,-4.523063192490767,-24.238793266289566,0
-79.19514117428616,38.02073280721487,1039.2900079325416,4.254575617849648,-9.66976143129213,-0.47711356141979855,0
-0.18012695452842023,-57.918234459627136,1075.1699150883576,8.773622905756714,-2.2096417382966393,0.2688583899453078,0
10.419140397377625,-102.08674342121454,987.6411308739702,-6.819842479977986,-10.016200098949156,-2.811002928859549,0
89.88432634247613,32.042143063350494,971.4410505108601,5.725827813561586,13.993554365860021,9.246336829127689,0
2.9815184960087064,-32.34683888527869,1034.9111656806795,3.9348538542174962,8.951932200277323,6.351718016819695,0
52.47763576596676,-26.761760578028397,1065.8697032817163,1.9759960469239966,20.752608726252653,-6.891878180895679,0
86.79819015826247,9.89553917313239,967.4290998192776,-4.838858340543216,-3.203473081943202,4.241659464019164,0
26.14177440177498,-28.68500019692895,998.7822703869508,21.422703586118637,17.275431701007115,4.363236696740321,0
1.9001739084100144,6.001566335913065,1030.6758986365207,-10.227925651984055,-2.573765374233451,-16.685840738775894,0
19.961156130263962,32.35979698513705,975.8406768850313,15.739867632900328,-12.257656630023412,-14.643748802098202,0
11.222590927998603,52.35491513060773,1084.1963845728935,-4.588842628689401,10.786808334312957,-0.3850846950070721,0
-8.631364997040981,44.18299687433362,1032.616143920671,-15.763921569842495,14.765403497258959,13.800913541474515,0
-31.27813507547647,19.79017667187045,1024.701509314137,2.606737658239071,-5.503051538454201,-6.716233679380515,0
-1.277703549572264,58.63645096296823,1027.1800077297216,-3.7061433208610595,7.716987106483447,-28.485426206300755,0
57.43828501860517,-86.98568893890499,981.8779529298434,-11.196698946261439,-12.946814757209058,11.608267873785195,0
-23.38506006559457,17.325194086535788,997.6539710560407,4.770408272231215,0.7682189106025537,-12.829922241885697,0
49.813340972357004,-24.687829158065625,922.1709050670124,-4.281151609659125,15.007597906343108,8.50221742113493,0
-17.43260672039296,-17.46288521592144,983.9182474391308,20.76747983560841,3.8193545223155336,4.3004164719106965,0
51.51417270159211,11.939457951325675,987.0478927089648,-1.9634984908497826,-0.7160125941406394,-0.3722223650984159,0
36.38147718184899,2.597294290364972,1036.632003860779,-0.8071658010858231,0.7863519031609059,-19.982006845321077,0
45.81638373512407,17.324423794899634,1049.9005054929826,-28.962553781936894,20.883747047807276,-1.3958962815517375,0
55.40914083687583,-51.99529635627654,1030.6386952531284,-10.534155631736562,-6.237689606958051,19.14031353866786,0
-9.534120038167329,10.871643658986144,1043.5033865344376,4.956818879726047,1.5041890514357643,3.6496100246622545,0
120.17077926191375,-2.8809398516792695,1010.0549523357483,10.50654396007612,11.055259329579838,11.870303055603802,0
31.93651110145923,-57.150245636524176,1081.6715766150548,-11.46345393018688,3.0263546523903324,-7.542758500193579,0
-3.206917329649627,16.43812051517402,1016.0678607725137,4.219207542352848,16.13711269058647,4.535343015139798,0
-12.207831764532434,48.20435841441786,1059.473524446232,-12.276078151369925,5.97400069849858,7.011727423108983,0
-14.878175167999597,68.78534066558097,992.4972206483736,1.2557645347154225,-1.730718242838696,0.15579047581467534,0
-54.81375434476009,-72.00254412971472,1079.7252531612487,-8.469613483183277,-9.913923494563072,-21.533901136037148,0
-31.94808738447511,-66.15448967037491,1082.1007580068185,10.098170893426342,-6.881503451777238,22.524358053443088,0
49.08827434957971,-16.241569175431124,875.0297142563213,22.90942572590742,-13.89572466763596,-16.45398746956892,0
51.12852160048201,121.98762031696364,1069.2136409255259,5.6390912005235965,5.947543416652859,8.534155587803077,0
37.94642948933826,14.05957119846879,1005.2100551975938,-0.6259312789952242,-7.5396458886667626,-2.8067507686677406,0
-84.64784070976927,-4.916981339737495,950.5704446424542,-11.03589317215771,1.7989415115347844,13.920022863445993,0
45.91583030011565,-78.52503018115885,950.5185931714831,9.407711879882159,-9.824873935383096,-2.246331499970246,0
27.502604951227593,-48.41722274318177,1005.268775307298,-13.340254949182045,-6.013676439512137,3.1978193414253697,0
-79.64968667658347,22.023736898019948,999.018110053666,5.524899544171477,2.239141340646614,13.641404299738442,0
12.522450264790727,357.0594458874747,1012.2297503032283,527.1649014518194,2.4430035162852164,2.029584560194119,1
-3.2568941148231403,332.3070519447069,859.7394728200306,585.7252667840992,-37.089808769869606,-26.270129143955444,1
61.57427081596208,483.89085252264607,970.5050321707972,555.3851221689391,16.356092802637257,30.685276777653197,1
115.4172044059081,601.9481772287912,881.2401580970487,499.7826160756669,106.29581019606137,45.75660158543576,1
244.56455150309574,364.76847812164976,1004.381147197911,464.83808503731603,146.85394986132047,143.87989942278801,1
269.6401359598567,228.43788509913253,991.1717951648745,585.7581957040164,81.83726452425351,123.53817843575524,1
553.1730206890163,295.163847846746,1056.8983079185275,519.5731711783587,125.56971518114024,39.55895942785287,1
384.54514799981087,231.69282321475305,935.0722454933994,355.26360701693693,167.72163818596454,19.30769783596223,1
520.2968154017232,157.88781830997314,1033.0880232214456,433.5231767433661,86.65755195492035,84.47615784009525,1
670.4045839902801,170.62334909944406,1167.2572386837703,385.435264179008,170.11353899068615,70.83645665405028,1
650.3485516340876,275.25278168478445,1053.875599244637,288.5316235254608,231.41148884502212,10.66160376991101,1
626.101328284487,151.448881798471,926.4470057410233,364.1042161917093,293.52448143697234,119.38394188234435,1
566.2310639343542,182.68987302211843,1121.3097699979182,274.9992431714935,369.26485464968925,116.01662679006165,1
728.167775033975,154.40676762769456,1013.3540904782283,224.02452574090367,301.2665076037939,151.44051771435525,1
658.8915752200055,21.88293922506338,816.3794626896704,219.15735957167865,221.39061516785648,3.033780201044678,1
799.7030734892192,372.906749493258,999.3929088460106,196.43303591005582,289.40842281592427,112.61256779893749,1
870.770770597305,62.31289362539714,1026.7392314071903,130.26032536512852,258.6691481797956,173.83167353248822,1
773.9218907008499,-17.141304524319814,1053.6509843570404,28.118115191653956,298.1907577573529,130.2281709658109,1
907.010939325775,72.58603109972069,997.4973041254856,72.28357472467113,368.9183959793471,164.79993650333085,1
800.8598087642144,-139.56059118835873,893.4886336924627,-25.732445159411846,269.4585949344895,133.54597077728837,1
801.2825087843294,11.157890128611747,992.9501221940909,-27.939149442516573,301.58028935098804,49.855636777785264,1
691.8962612010754,-89.36128140645147,879.0305257158892,-63.69422079305218,371.2237168357915,215.0407411400237,1
749.1857663451057,41.504685438888956,1014.8667457202112,-151.31420886353476,258.2786368622505,144.18249928043284,1
711.0079097393905,-122.38719669117722,1016.0573981049864,-174.1337226532368,303.03150533488497,223.76215556605786,1
818.817055516948,-318.80151347101946,744.6078865098045,-166.17365022057265,203.10418081903475,157.62731500576885,1
575.8090204216151,-380.19804375800186,1054.1462728204788,-212.04224198486753,230.98210109899563,43.652966149642225,1
602.294922481715,-189.105026533518,852.1088431225871,-276.188787853258,245.57927028146145,206.20529082629736,1
628.3686310620468,-352.27648998763146,1119.6571501664491,-326.63847352569337,229.78874585724017,134.3020125395441,1
527.2499185870915,-368.34560760803635,982.7053940076577,-264.24624624956556,145.74674674327315,103.69456042386304,1
669.8535159414454,-323.7303899758891,933.0927261340083,-326.5022934560743,165.7454042101885,278.7568835757251,1
538.0207889679054,-372.3979385645492,1215.7308213265503,-434.7942433376406,213.4403442882073,205.1759322793553,1
544.5957364383839,-185.99458439151735,1003.2004149065766,-465.35302359756247,178.40670995889485,158.74674487192632,1
557.0468681006041,-344.63117098749143,963.4678448687891,-438.62186482646104,66.03423927899338,146.13507864909946,1
414.54103294218504,-437.6000222524401,895.308901731806,-438.0556053177614,169.7225735385533,232.40511567899105,1
330.83020613615895,-458.60730786977297,857.8189333258156,-403.59306616825927,70.57554714123471,185.31281576984532,1
299.14876683911325,-335.6360393534563,1045.5887772081608,-380.82368312184866,30.197595726320642,245.2963854777165,1
105.96789934115209,-369.98665263946543,1152.8468426412533,-470.6655628427577,64.51477402177301,253.2307125511444,1
-2.9947499709286802,-483.570098773444,895.5190805978966,-597.8792445182293,115.37305261577605,144.79571840888494,1
-55.62588534193685,-427.3304620284354,1030.7406697809101,-458.77455442246435,30.460978299227396,170.80226476652217,1
-116.97875823008458,-368.58788547696116,975.1308873816453,-415.69007185623934,-13.051222487378723,236.34923498814516,1
-100.04122578746598,-273.9116545449898,1018.1021558703707,-553.9153977646952,-42.38910965769564,166.3365343840632,1
-284.0871057305529,-324.29139713731763,1123.8283071433636,-477.5961699292306,-71.26788845339325,282.9652138243596,1
-270.4243241988858,-111.742282937261,1056.5509645631544,-552.9263809019166,-72.77028475017687,215.51536938987658,1
-226.73286793966747,-290.96656896876925,986.1544016016226,-509.0707919341747,-143.84171661977953,152.18975786416703,1
-472.47395247897623,-283.2878636221418,1166.9904504351407,-407.94855358910434,-215.2022559136982,214.86264677053867,1
-350.5650531694133,-384.58508818191723,986.5982833327082,-403.77408745101394,-215.5804913418539,222.6253249512237,1
-534.8312980528622,-260.8447778699999,911.2507822197899,-400.3704428420489,-159.90711330564295,168.81474029378998,1
-398.8817585829023,-319.82895476680636,1022.4684725751886,-303.2021286630282,-285.2600905364926,96.33218971866131,1
-768.976225677641,-128.7111855567576,944.8141854107553,-190.80203059093216,-259.3663527656062,190.19297565305575,1
-502.7083720501754,-27.676138257860572,1206.1503576636399,-224.93847231255899,-195.141636449538,206.86706330630213,1
-614.9842154108869,-255.1185716328535,918.1801116577693,-250.16872287054784,-268.31685226157794,150.54367829052399,1
-654.2228972271444,-74.7811957689778,1008.8406886291847,-139.013141729773,-328.5325714464812,159.18261213641708,1
-821.5078236537937,-326.0824806360322,991.7319314157301,-180.3733990800719,-205.51210968546087,195.77042605447969,1
-872.948735871047,77.84132838731252,1122.1033695525352,-105.35502513420211,-300.272974981789,111.33402176866528,1
-823.0504781900563,33.92233613612875,1188.4586305934608,-16.528480879252868,-319.1286463079203,98.1217768907073,1
-781.5288916034983,-218.65532186334687,1032.316771418478,-59.64436094876055,-321.6583937038941,68.89381173213911,1
-748.4645361229047,-61.64705191953383,883.0083164289712,-154.0843206057608,-301.30995029498547,231.50711576004784,1
-632.2954612878302,-20.59341784690205,939.778793963822,54.8339725684076,-349.32729048789605,151.99901617671105,1
-714.8098385319216,181.12653381339524,989.9845923520047,62.85782677235731,-340.6808292267246,89.34010309602812,1
-801.5110114886809,128.07689872587997,1091.3584626233248,74.01648752131048,-217.43924241397198,110.67337600353366,1
-762.9819424709665,48.88562983519655,757.5759739727058,198.7107670055261,-248.47476003392444,103.49067260258397,1
-730.7914495483132,206.6001563512511,843.7454143113457,167.3051593587367,-236.8457114954588,47.963838690206344,1
-679.6070701683088,49.6602335856042,1046.6429982433526,229.8659434450567,-346.6176645646399,161.8423695974846,1
-748.9214980814173,133.3054742901603,1020.0569197230943,325.3452649609337,-304.0894685995245,99.4347273127417,1
-594.3422843862996,311.1502066712644,1017.6441555277225,283.9481654770214,-280.3384864396948,93.23422998930421,1
-701.729761580476,-24.482805805917394,1043.6559804157669,379.762045233739,-341.0900694203101,30.860793379663136,1
-485.72225864243137,497.3369979397344,1002.0793707675408,328.0841666492489,-214.5089538338487,142.36873149434487,1
-561.514642135102,233.5581822653105,951.7256477817967,344.1802982499842,-180.2108182837534,147.00725227119472,1
-410.4053120830725,307.933146071411,970.8188731084456,338.3010799202169,-121.86197591564532,53.91449953825423,1
-403.4509306404348,669.8334288020316,1029.8752908365686,400.56378751717256,-165.84398204079176,107.1602628928087,1
-314.06227340686365,221.59038522530372,1091.9228934575203,423.36552454435076,-28.356104111862777,95.58474144928428,1
-307.82550695674223,505.8521842685036,1006.7855510527403,514.8268688748514,-74.42335315685143,-8.964083406323155,1
-263.3068929636305,490.4293462095685,966.5224667893459,464.10915740221566,-122.36309511692426,46.24659999253396,1
72.837494551433,287.64512340277474,1002.4219456672758,563.609046306024,-54.012693577116316,39.35415847894975,1
-173.18162748054067,441.4278534205665,981.2855734995451,547.5329294087453,34.2659495785428,137.85331284677065,1
57.963317321357366,432.57963165821667,1019.4384301577336,482.3416853594656,16.92419217308448,-14.770070506951447,1
83.7883722928137,530.3568972605976,899.3457434720359,555.2403576812045,90.95910636668788,-14.27855709539385,1
-78.77049252797838,333.61621611875876,1129.699454656111,491.85461542030845,0.06551240008487014,-41.974314727873875,1
283.0139123823392,442.10662127159037,976.1067900830305,465.95035997358116,55.01905869726538,-71.18715593778599,1
424.6308863378103,345.5185011738585,1121.7158520825496,548.2539877148631,148.5755389289728,-54.93476497912282,1
365.7623234943007,362.9986224179488,909.6298139269871,472.99069290738066,63.06900336474978,17.801631259526374,1
338.94120955153323,370.6386376048293,1028.3287871546142,425.2080913367278,173.86079230427845,-73.48316026409722,1
529.8429691403994,198.570528259365,1012.6379579546411,513.4070703079641,116.0008985427244,-91.69360791513687,1
548.3090091885397,331.43556112429576,1035.063009927356,416.30608517030316,218.08040751158157,-10.288337249905467,1
588.6195504358027,267.4616855067101,1067.2573701202732,459.4784104554663,198.7324444594781,-122.35137577046774,1
705.2239273106122,255.61412614818371,782.7330453985963,376.9363870369505,196.17703834552196,-85.873992730368,1
670.4219674762585,260.88961392285654,1070.945181713904,280.52523890269515,264.61426531606304,-101.90436971618136,1
749.343388490362,275.8674663929042,906.4561297955405,322.2125032982502,226.50020539490203,-55.94784490628574,1
745.6915947251057,369.1367817274571,977.6534017628148,214.1821777540212,264.89009347497773,-118.76439101633977,1
817.4847114650056,-6.624826262817777,894.6317580853646,140.36764714709162,324.074325075229,-25.14764121957259,1
750.4002911823757,106.72462543097804,1007.0052163113181,212.6024123178834,238.94929817901732,-105.63860132175535,1
876.3828852767712,141.44976503824688,1018.9581616598743,164.227739683685,156.91205621198623,-90.33579007911668,1
726.0102980576482,-124.63007826068066,1051.1202599524981,141.72444153935416,289.9092741575119,-83.04039343787407,1
959.6492085414818,156.60765317013008,1163.9964529371393,68.50163431825128,303.1797004735611,-217.0077117805962,1
775.2182979668816,-92.70162748496203,1217.0942717497815,-19.265500563295397,306.09444538167793,-115.32026712453734,1
799.977760931864,127.69371873601415,937.7350638265548,-42.5338588719643,261.2330393255796,-214.63009065651408,1
724.6528914924223,-78.65620553913121,957.069777548274,-128.3117062865553,224.3703020350149,-158.2579271865926,1
620.0580160350266,-31.56233187714554,1008.2439752934504,-207.33748528087875,273.4883161868044,-196.91380388436835,1
781.7430426354316,-5.3837743264112135,812.4827530354255,-168.5347197035362,273.1779570692355,-130.66283800421746,1
745.1813047965843,-245.5086497999112,968.0946064333382,-252.69093862271112,325.2484726697357,-167.80000266680594,1
882.9393916028521,-206.06608138146177,929.1593233089537,-325.68571963064096,169.65063732253452,-252.41187790716214,1
683.632032408112,-177.41292475077904,841.8809297967866,-240.60486813840976,222.19171015593938,-169.90106524696543,1
777.6326570461733,-165.28566431292302,973.1469352094168,-363.2716061451096,123.56320276627133,-216.92307645532497,1
550.4651198234736,-378.5832889204644,986.8743032907695,-345.9890761087441,203.0990047994372,-216.87275935887305,1
539.6019503887574,-258.60395730376155,890.9600922557154,-307.9509088385646,191.09677458281865,-186.51391675113592,1
541.0496441596345,-300.28518462362877,1095.3136633913246,-390.1522889273824,145.7137069557201,-172.13612699872562,1
300.04898676643813,-331.2897334865503,996.6770009355539,-438.0879729438802,148.9812272399926,-286.7249656344136,1
300.8356525738459,-349.00021398165364,1015.98563919974,-499.2396371660043,196.67594579871331,-238.0245229853571,1
391.44536220041607,-329.1911581681321,935.3772690156197,-376.1226983136502,50.755524217579385,-150.49974146523766,1
331.28366935987503,-449.9898199204914,1139.246530006433,-491.1620744959813,101.1442205473343,-184.83837465403664,1
152.89847850715387,-310.1782129775439,1079.3488720552214,-576.5003990288117,127.59051938923588,-282.0289784754384,1
203.52120728560885,-284.1753668430328,890.9033569784801,-516.5980650549682,-17.685263355005617,-210.35139720009107,1
2.697094564785207,-321.6830788126094,1131.0308746119608,-429.7772245099314,-15.545705210155358,-210.4172303821955,1
-201.84434220545376,-480.2361386891622,1096.4851633097458,-418.7822738720176,-74.28013971275563,-229.57934965261381,1
-102.90716254733525,-368.8297646438305,919.0396480078354,-474.8542984340345,-61.29193742283676,-200.32795922956825,1
-111.70092785383814,-390.6168133124284,956.3614109473432,-494.5542905631943,-66.79165520559481,-217.40493056776106,1
-257.10504382228686,-223.0630819623553,1056.091944794124,-493.43376466749174,-51.86181885780446,-214.54544108039818,1
-177.18717838907764,-334.9463751354913,989.2697855995771,-442.502396653612,-188.98117340882814,-252.795823591228,1
-475.1006439878471,-343.9903946193946,1173.2514999485093,-336.290872810075,-101.48799868344024,-169.6735568274092,1
-594.5273809137776,-396.41308403760496,921.2216248091761,-458.72450999280926,-163.8152937411784,-216.237042244388,1
-668.1581828715571,-248.8157721382257,892.7256974260193,-392.54615398191635,-72.63144220024319,-236.1805328383519,1
-775.7652354667172,-331.3984444487137,1110.0959634998571,-280.5801551148486,-257.5036609196524,-162.62143673655225,1
-618.1091893842479,-290.4601716357598,1264.4343347017034,-424.9801866764404,-201.65482081511232,-160.98797172942844,1
-507.8319617266957,-245.17128055238686,1030.8050539504102,-338.2944232454351,-217.69762577048104,-198.12502426807453,1
-594.7621783213581,-265.24646067813603,1037.7100393902188,-286.8199245264647,-190.0422502015028,-179.81040202566726,1
-870.1235698482392,-73.80784992860077,909.4267699137381,-282.6883169324409,-289.5906858375062,-104.48317609834686,1
-937.4290633706847,143.46313673996977,1105.6056809066051,-201.72770007607903,-274.19281577062003,-154.58788135752027,1
-697.7133487555794,-74.90726033372025,1055.560446600345,-169.80698959814498,-291.0515178629338,-171.79350600941638,1
-790.0208814733948,5.80908144060038,1059.3556722280862,-281.47934204084663,-256.1537312128094,-149.5691738689005,1
-787.7006762275406,-113.80437114317888,1112.4112719986013,-46.314334186719975,-333.330058609787,-133.75003419893116,1
-892.7831897487473,-179.77320178595414,937.3282775410034,-9.144558014688421,-250.7003163416777,-122.97469409061415,1
-727.3149680950767,43.24086075815269,935.8518404777047,11.124917292018102,-259.91372878106955,-105.17996943588201,1
-679.5300455951528,95.94659253183141,1035.1448207541582,84.90277168047767,-300.7340814909345,-181.0031537471237,1
-807.7245627647671,-16.057053055680527,932.4821725025619,65.81558074542959,-336.40269593889457,-146.08219727997317,1
-968.2245889939069,112.66971878155593,1000.1205475362224,73.32100350191806,-259.11138744032786,-77.35104917433421,1
-921.6011994730204,47.334319893357375,923.0857650212702,107.51334213203026,-243.84321279195873,-127.24835739713485,1
-763.9420054018616,-45.380001859834294,1063.5418030209225,131.7948734833777,-273.5623139632338,-96.80946295075927,1
-572.8970038011068,54.43637413603341,698.0487844179174,240.84049479761555,-175.83551469382178,-41.658084227654186,1
-654.4963988741495,165.1670994283939,1080.712259663731,219.23608750427485,-229.48048918279355,-71.07722686201171,1
-531.202943669469,517.8056498360577,1039.2415967178767,276.8513761458125,-240.2376910168586,-177.3808310814414,1
-663.9871734908212,226.72399873223296,947.5911602065407,342.18304678111525,-264.06444426232827,-25.29579524893645,1
-547.6169782511321,290.6574188547027,967.2105283487082,372.24384790365417,-164.10921854522522,-116.98142132248077,1
-562.7298731301748,283.1047800526691,865.4129076526785,350.88383567684457,-210.15537776072642,-22.053870312080406,1
-416.45710649448245,352.52748742079433,1085.0897962167971,409.59203093508,-146.49422227655862,-62.96744703551908,1
-358.8667043414102,292.246806256387,756.1182841723571,431.4393819126163,-73.38869542551791,-3.427207320891455,1
-228.8495660015239,489.0312552376619,1008.8657590961437,466.63851419158,-152.90358769445788,-57.38598096490446,1
-201.51620241375184,498.1389918118742,986.0553724319001,449.6787218761701,-98.63359607874487,-3.2934118967646278,1
-343.33739134523864,157.81516913772856,944.9463150508417,423.25595926860757,-100.01397603182222,-32.45566265373451,1
-178.73983827518373,539.6451682752764,1032.674476460232,508.02173651579375,-18.920266812660795,-73.67722455550162,1
36.968904076173985,391.0207150462557,1067.0480617241212,444.6535679727443,-102.79129130049805,32.519352155411454,1
18.82047630487583,-45.10257771787552,956.5168459362653,11.254347844147695,-11.89411892867328,16.426729532559634,0
-45.03103673239344,31.91959628041915,983.5690762125507,6.031874310823431,-5.441140021141926,-1.6279290607229422,0
2.0459587697860564,-50.10937278907364,1037.0412172710062,-5.132135664715852,-2.285999153400186,-9.943493746085123,0
-128.11668293976552,-9.551388130008451,1120.630771080646,7.8460428789802386,-0.1926037973439464,-2.6289082920826767,0
1.123294640602319,27.355955758760498,940.9593592345577,11.143216946688721,7.153813154412441,7.181857257079345,0
21.923786940486366,0.9808328846994951,1033.643061798341,5.918141337413781,-3.540407109410238,-5.73601772896901,0
5.092814763099335,77.45100757475937,938.044646217305,-14.6752526575244,1.6476084123651673,0.5088770185601806,0
8.66708321852041,12.197659895425012,988.8398872682598,14.898634386020822,-16.009039784765157,-8.28497024780246,0
-5.162738007452369,-82.15944055770836,991.2072797783965,16.614701657280182,0.2088648829596179,2.3070090571868347,0
-63.008238258629014,-30.818070401973873,981.2401809838032,-3.1771509675623406,12.816437950037686,5.5769106072512455,0
-55.572897846851596,12.325238921600244,1024.9110874248393,11.401490385212664,15.805406865683736,-10.150941918278686,0
-40.54287556051691,-62.87889294573081,988.2990070446509,4.663583744463345,9.873345165891019,-0.7595102364252276,0
-15.992376162742197,7.587899612437019,958.2428549184989,20.895387216947732,-16.076610271180588,1.8474057889572446,0
101.18031096148196,0.33999222799988843,990.4980482499253,-3.5744542281042717,-1.8039168176240783,13.728484746765302,0
-110.59309556647534,76.67168506481627,928.8021423774927,-2.6665232923441478,-4.292444202986618,5.885532697707197,0
-79.90621759418738,23.108633304097143,1101.2154811643427,-13.631740045928105,1.8970616761039567,-6.619821777966091,0
21.29436030965179,0.9573888707876029,967.9256545477845,4.87872284871074,18.04348109786743,-1.9090379172729868,0
35.9878971074091,-64.66364789355819,952.1781811590996,4.7240627788037735,14.84116028535965,3.5561334878565996,0
-15.652901526157716,-0.03542972883229586,937.4796133015142,6.045153263553668,8.823330623234092,-4.520903328330804,0
-23.502107387975073,13.293911482602425,978.1640131979702,-0.6613261462582245,20.997217891665155,-2.4702570074599666,0
-17.917007601061112,-32.37709028175796,1037.2095985749968,-1.81224173218103,-6.49373038321426,13.213040322730121,0
70.98015022568185,-30.021178286935257,906.6730024319692,10.075136898369221,-6.84629825760004,7.906255991627686,0
-98.50519088559177,44.62986691496546,939.441403535961,7.307641190665245,0.14273067836434106,-9.539394193966448,0
-20.351815646339023,34.31592284783504,1005.2947226557617,5.844129804724842,19.764405845154855,-15.642416117110514,0
80.8606287484312,5.217796876160646,955.0607975838436,-13.303136257389898,-1.8912039077703349,9.216501119244594,0
-6.37745601887671,75.55774651236737,927.441215497422,-0.12088947846054561,-12.523934444131191,3.6363188262496786,0
44.344369504865014,-21.038089684052665,869.7893071686433,1.9894814679649453,4.367385517335095,4.042947549616977,0
61.7891095911077,-53.55268398245244,1034.0108052725225,11.925075124779749,-17.785875840065167,3.196518259189772,0
-25.208991550383576,-4.076133655082295,1017.3838241769168,-4.872285641135523,-6.757080791616118,0.341524174880246,0
-54.36229694314013,-54.291256444259275,1033.9686641478252,-11.48794035158656,6.663125009092119,4.6259129285395115,0
-86.29033643952984,-33.87823261678275,1059.7054701523687,-9.811655311396816,-4.644042623093877,4.620608932518965,0
39.16952546412978,-12.576944302224785,970.1244902654179,14.223698616985077,17.38899663797579,9.788580507817954,0
4.265907128251203,-40.41328608204632,958.4777796721718,5.225141052657575,4.183982208886837,14.015985929464295,0
32.522504626806956,-75.1540150879909,1052.5973808861459,-9.98060627314413,-3.839712719523516,2.5020020625169446,0
99.78337448919822,155.49592780026805,1030.3361529568092,-1.8319661872038786,5.345056484805503,8.876554258738361,0
-16.033381277859586,89.76056779561611,1011.50353795957,4.977430890913943,6.6592425205446135,4.215866106144556,0
41.94702502348061,-30.862659327346158,972.0849123026985,-11.00154232971695,4.395012306202264,7.789365035121141,0
22.88864330759429,83.72462166737687,999.7201990585477,6.687416555925126,-10.917008761393143,-3.87099702474401,0
34.776887878288875,42.4551055371572,985.3016526167909,-0.7159925185806683,-15.178737466808094,-3.570292008066094,0
44.51915817598931,28.76025080532831,1025.0332860690605,0.4977368718096008,0.07063158628176452,-6.603211394734471,0
34.94142101012674,21.04864721946949,1024.60094239964,-5.260348426675804,-21.533429198712444,10.971527117536956,0
-23.941872800420207,-43.13878820215603,1034.6739455956997,-3.920126399191296,10.599363840466218,6.170059495766975,0
34.17846616002388,-68.29778556002671,1060.59719926932,2.6125053123385604,-3.6927713924620313,1.4338846734225108,0
-88.811761644916,20.43264057403354,948.5314245908964,-13.526702858435344,-15.22359186217891,11.126883749899253,0
-31.463169684639436,76.68638549582496,973.2099268473851,-17.073579575929468,-11.16524439948659,12.358116200069386,0
-7.794908896833376,-27.414364824530047,1008.0009112926393,5.01782736167545,11.173988159024608,14.484992298929262,0
-17.988432289454288,-66.3023843041019,979.3267419438362,2.6028050658288615,-9.63758926210611,-9.57150914895043,0
17.18939407749427,-2.4326175785225574,1001.6398497705793,-7.5849533470006945,-2.304007142057673,-9.242331442683044,0
44.509920556239344,51.762466736187626,907.6906068880953,-9.2951086019241,-14.965292550900791,-6.500239344068982,0
-4.171898489518043,-72.48226098492651,953.9070093437343,-10.039573720814985,2.0726732939894394,0.6934433703625043,0
-36.08687766686266,8.8410436069699,972.6659957706368,-2.7165511032605325,16.73452090298537,13.404610517903478,0
-64.97906184637988,41.48662089395872,1040.5698277245797,-11.482632887526183,8.187776437548607,15.379319184125528,0
-56.12724031222069,-45.87514105071318,1050.883073342175,2.7149531082564797,5.5147627523952325,3.4058921640049675,0
19.53479604640721,-66.32360641555415,1052.3658853310724,11.695899924277736,-2.2939074406802775,-0.4347694981386243,0
-76.5553751277861,25.712737800891745,1028.6028720857073,-0.62191016999311,11.243533598705026,-3.340772309799405,0
28.230296294680013,-50.98321693460578,998.8223924562881,-1.7435425790283585,2.2530792204094157,-3.695269288333586,0
-6.573629783583391,41.30235857207531,978.1617881380892,-16.065771007386793,17.495839042054207,13.814540786904866,0
-64.61313475528094,34.48539026225972,974.8512614724328,2.634872153310596,2.942241290134937,-2.34407800316322,0
-39.188283279319826,-34.52705261581297,954.1904042259379,-8.318222082304448,-0.6717829004935526,-7.157599891107518,0
34.10260328563099,74.36230776679636,970.9973379314979,2.3940450053537705,4.996851103029338,4.720022709192744,0
3.7977633958043704,37.13412091798612,1024.1124476340328,-12.376624223272978,8.691560643892732,8.872908372667421,0
-38.16430520892908,1.8968917723801013,1034.1664496405535,-2.0931381957936157,10.729780477660118,23.63872494619361,0
-39.29930163174912,-69.05223015768874,1015.1909297802438,7.215625051261435,-2.30866373844769,14.532606633210342,0
-66.93028998616244,34.645931151580555,969.7069589620553,17.193779062072966,19.925153531681183,-7.666565877833479,0
-27.477856795429005,42.9793943489901,980.6434675105243,-0.45411217932238224,0.25388420542410184,-19.196731561976563,0
-0.6918873047118624,-34.48638870320869,975.3438588800115,14.43632003468814,-12.565068942792564,8.132051867479772,0
-13.948146516590427,-13.98800842479172,1039.5185948025855,3.4005129456889045,5.70612997219531,9.68184660532861,0
-16.565419159166137,-30.611836725387516,945.7424736721101,-8.25410529978955,29.490944253087253,12.446795807367867,0
-67.55371831040107,-66.12289783717851,1024.0933030859246,5.47264797377967,5.488838353173644,-2.5495579355369786,0
-6.272713000145011,16.39397620796787,1004.2946503146666,-22.19300372747535,-2.297996305751938,-8.514064342603136,0
8.760570945425602,149.2629501301705,1018.3740832737152,-3.135296861723979,9.218015019772523,4.826878872092127,0
21.004724522592063,30.34252966078355,1102.827178241477,-11.308884353259156,4.7363207681145445,-9.263811299815384,0
27.775632317112414,-45.934325574304715,979.1316593197458,-2.950899142379063,9.75816719344709,9.184544439424139,0
-62.28586882231922,2.7467055499924364,964.5210072625414,-12.585049106753345,-2.1701705042437043,-3.084827884558197,0
121.33582431727612,21.647991268034808,931.1191249622882,-5.647740041709422,10.213832954293984,20.88442772869925,0
-79.29916561189792,-93.99621925695226,1093.5482587685892,3.8961417737090387,-8.682927318763664,5.346290861224353,0
-131.78738695084388,0.16877532985804994,1016.3910586421542,9.242701395378297,-10.138959522925377,0.8568716140335904,0
-46.271231302979366,12.769187783715855,955.2326838818487,-4.081008391602206,-9.958153947902291,6.511362418236571,0
42.92255583283327,-11.731028497870689,1001.9118997480014,-14.48591414633544,-2.996766480067871,-0.5020461704174478,0
131.03965455149876,-55.59835128870818,1073.2088619376218,9.96858773465808,2.806364044901364,17.586204841951336,0
18.605273630343145,19.457959783396436,997.3439673491227,12.235688824186274,10.964692338108836,-6.256772874962124,0
-65.96235972993837,-10.149031869782855,959.9980717801177,-0.635245746153551,12.374381346841393,-4.5730165508679,0
-2.141169065578744,2.901136740419761,1042.4215441102642,-22.46889333984605,-6.067002947652967,2.112836922794727,0
60.00394782134306,-24.595122375310257,906.1723646979062,6.197114459661362,-6.353623888256293,-11.896666590903614,0
-31.217269485661202,-9.226267882792477,969.7627667730893,-22.055660570990693,8.970661968871323,12.748750412787222,0
32.57609956697529,-56.88428352124083,989.9254233026242,-0.06521315229458062,5.987943895619102,6.683404887180808,0
-36.708689938924785,4.099777820678021,1022.8640202307621,14.558223221467665,7.045065398247231,7.890566873755189,0
4.191331396468047,70.52295726017519,1020.4881397979749,-8.610879101735705,14.033699701251907,6.979032725390276,0
-22.152201056424115,-23.974648369962168,1014.828777257038,4.631847952675847,1.9729226563120643,3.113086734428849,0
84.99786872881903,53.57715761174428,1009.5317795632512,9.413105807674834,-10.325239035275395,3.9792704994680896,0
90.46531748665551,-10.902294769618692,957.6183035690458,-6.5208888859306064,-10.896330373423883,-7.847619081277034,0
-18.52540492950145,-70.2783509589321,1000.7809166974802,9.022771737866472,-9.077561801469203,15.192839236417688,0
25.539604426379736,51.52902928120287,967.1082723073931,8.545252270666158,-10.91933900395313,8.902475008365087,0
8.59196698967656,27.662560999239183,941.2202697187574,-8.950698422766047,5.9722821825338475,-9.483480042242007,0
23.160314604956152,-68.3568903230123,1042.4087106333334,-12.32523314768509,5.522999376795232,6.256309336460008,0
-34.83859092147875,29.101328354236344,1013.0221131666779,-5.3884185619273826,-10.085546840762081,-19.62625691672579,0
17.482502364984683,-78.24013856810275,1004.7672099720654,-2.634482160822491,6.791427754381955,-3.020454994898642,0
-16.47238931735457,36.59353521441478,1016.7529014542059,3.161559571827783,4.6926758980852625,-15.355721232071058,0
37.8394339993491,30.623439700680116,949.1658435711752,-2.440804736742013,-0.3930728762763119,-1.3449678440173272,0
16.692998328426732,71.56833909155918,1054.0883363836415,-13.122191934314063,6.220699903060487,13.289333195354097,0
38.68085206892026,529.0980425185967,1201.2270445700765,571.1854773053491,12.465429782086442,52.254423704237674,1
85.61495014215728,420.9173052132874,964.8585764286267,596.3469547513477,-14.981301864082262,85.41227351703772,1
191.73984708272408,274.1877180894179,1036.764929299142,407.7166138940813,82.9737123235435,61.8339212492358,1
152.15080852492122,419.1596972695833,1195.4157433750286,478.3759085737914,24.148485668274965,100.40314917163383,1
475.79536878087526,397.00764268452673,1101.1463035408356,558.1495083000342,64.8244488620416,10.756145041988066,1
468.81359792990366,552.1905200807432,1056.2880860174355,431.05292029904973,225.4414149384701,17.11291018113123,1
375.97684486931286,402.28258906738483,1155.4160420714775,498.37827245042024,170.08691398962728,75.38930281052481,1
474.7342837211891,405.6408725500924,747.0439922305698,418.2886722157618,183.61747701127572,3.145973177363686,1
566.6079450177199,308.70412997824053,1175.547569831549,486.17158407017945,169.26553343036807,61.520110236767714,1
574.4702834785461,261.00087590103055,1019.5024984028126,341.14958281475447,155.67883609101716,108.44171725879579,1
694.626060077966,200.60327870472122,1089.53554307626,316.36902884833967,243.03315779989126,126.43189567654085,1
673.6891738501956,299.4057194563109,948.3570356112428,304.5682105570301,236.63130304348383,56.04447030182282,1
700.0013203651346,70.18542400480388,950.8846252857895,264.38615872059466,248.93266928085566,89.09339926782127,1
747.0966223605196,242.52848655894834,1087.4517074132523,208.42567691991476,214.56306679221933,56.683451356202184,1
734.8633867307327,127.5644145282323,923.0003933802543,136.7022717425988,262.97153561872574,125.28355634680084,1
867.900985434437,74.04483232664583,958.7002177856566,114.35392163260713,293.25556153275875,81.01347127187863,1
884.8548487663063,-82.67928374693572,964.0370327547538,133.79781941712807,311.0011857068049,265.09271705747005,1
875.8614854753308,-39.05058768798813,990.4535752910926,-12.849141820868525,302.64443575368836,95.56552398788418,1
939.861746720047,-28.582009257241804,988.3234084204753,0.8731780850228645,396.33085340543073,127.69275393912903,1
1033.069285301539,72.61935986081676,1048.2066727335387,7.5465990265303855,329.6218767880147,53.65563375560821,1
817.4552716479568,40.613842546017764,995.1102816525895,-124.61429323935849,305.68156503529127,241.26568916302733,1
959.6333346728572,-84.9005530626076,1095.1449277058086,-115.7636346029795,219.31546838455753,115.58448157643802,1
974.9770586288292,-140.34563284134197,975.6616020624982,-154.83021653368215,393.7872251859244,248.56922855318436,1
1018.5677144129212,-162.30478091516744,1029.5624488747096,-257.08959207838336,364.4041380484001,114.05235635468107,1
790.7805509723795,-288.557555220615,941.1133173261304,-263.2683531663228,250.10262323067514,150.35272919797424,1
681.2947137242652,-126.6666088219692,889.5137206937479,-248.97292864930654,329.36583278845393,156.2055165690623,1
626.1849386888883,-262.75216094548637,1117.972520836071,-287.0656736482365,227.99554010106837,210.2965841979571,1
544.7070413757785,-199.58212465015487,1040.8607307701768,-346.85089822626287,196.9298153381331,145.67963490369124,1
660.7835113224738,-170.96055276670734,936.2692252971206,-340.9056018893759,117.13517975606557,164.36037530072514,1
552.3016201044995,-408.906265071921,906.3493625210403,-427.02640676235757,217.1700236532514,187.46276687297848,1
275.7943411161051,-551.8571529009845,939.3134822142824,-397.80450777229504,44.83818607440497,174.7353596144007,1
387.69817231541856,-220.419211446568,961.4978188287137,-425.639966046417,167.65122991004353,95.7358150371482,1
454.76062397036196,-354.65928875492466,1050.8268639674588,-269.4582300026784,33.63125857239807,290.68640209141904,1
284.1611178419409,-361.77323363276463,995.4487754698757,-504.6955893317929,85.62696492031229,222.75575943167505,1
93.95965773563302,-327.0162722112917,958.3805595114746,-554.3096056686928,67.09921415299553,270.6046507653562,1
123.1914284934731,-374.9766304872364,926.9043724284527,-470.740659885398,98.7280110930156,301.28003969215797,1
88.9768539797373,-349.82269407629,1009.8067539538945,-451.1060555903777,2.911683024497883,246.83587861380107,1
16.12457605815167,-426.0504063523703,1009.1752484448373,-506.93185183007245,7.170000499954032,220.68960268824387,1
122.21750008639883,-321.0866200799987,1086.9154592496895,-542.3208479525998,-57.44349406746808,257.71897144160516,1
-18.928569276679227,-269.4211069769825,939.601937403077,-527.3770774515459,-120.82751053120603,189.96205766689337,1
-77.06788613715048,-457.47153023101816,1064.0479795200824,-518.1619076814695,-48.24977274242728,151.46502853655403,1
-237.15608243941065,-701.1877860535407,981.3103841838015,-579.329800902432,-29.300131225445348,246.61755756045312,1
-266.23877158536845,-238.4055013571275,905.1083479175163,-396.11561276611275,-67.50903311923105,194.4525582920773,1
-264.37788758889405,-486.8282905417168,917.5485838472326,-496.1996014864797,-164.2857909505283,151.623687465351,1
-318.014651257628,-385.138429304396,1035.250496835688,-473.30698360414755,-251.61853793309615,215.76700694707935,1
-690.8429619905797,-346.6505422460249,863.168496116719,-321.32503711343236,-136.64529210193058,205.00955798555628,1
-429.03684562612244,-402.5695211203114,1054.3479378670093,-383.6469072529778,-189.35938317024906,260.44689279863564,1
-534.0525674099027,-264.9862367331111,834.5112563771704,-411.82725183092316,-227.6219773659553,198.25988054741768,1
-767.9566288268134,-26.5504081366075,1151.6394055253572,-301.35455864969435,-235.25726219630747,179.4032325228065,1
-793.1686737658717,-231.95164657557524,1025.775254014275,-358.85908396998593,-237.84743396920328,178.33979919731766,1
-926.9023490045117,-296.0385010779504,958.6394466578356,-165.6156171329907,-240.640218946488,115.09125633973755,1
-720.4993656543531,-333.5577013511669,1108.2691053887074,-244.96146420473144,-285.17819570142467,243.59869673253263,1
-925.4060479265328,-286.11207838646163,941.6400673653995,-129.33852205637822,-366.52472051632844,30.833554012549428,1
-863.8040676189092,-57.7722446673196,1120.026174973883,-162.99637482420817,-319.15172606307414,224.9663194978686,1
-1021.9183330889275,-117.55222964430527,1019.0423889925057,-74.9773475203251,-329.9993823854376,163.5298315682078,1
-1094.1763464043313,-109.72679580579961,1045.3508712554467,-103.46950261191418,-305.35257648468485,178.40403839038774,1
-884.0685010393952,8.250560748647263,903.7267434715387,-21.220622324147833,-279.421203397741,157.8879107713104,1
-906.9758461204243,48.79365863139069,1071.4609790636619,-69.84599377363122,-251.4345825649693,126.94215531097105,1
-798.332489694517,181.0795643607355,862.8326302769534,40.4911247310765,-321.10185801231165,98.03065078170076,1
-654.0484098585055,10.230156063796002,944.4453220513134,128.96190403768966,-361.91693619448415,110.65699827063203,1
-776.652712725863,96.5010971992267,990.6613141100052,134.222231452554,-370.551035510536,139.51456354838132,1
-608.0903716855013,164.59670938822703,1022.526411724755,236.14424271093648,-349.24410181977015,201.33795824758255,1
-733.0401627042523,357.77002465925284,926.6967004476011,331.81703439021936,-235.9653348599374,136.43767626097525,1
-694.2762912413984,200.19439208373336,1120.0531658473872,285.64792688148026,-360.09514208498246,45.30894847601015,1
-695.6350055398415,284.93152655875303,994.3411511100104,375.3400792181182,-344.47936778943205,100.55278445409276,1
-813.4710241945004,357.0060842191374,990.5541285557997,368.9284139078123,-273.56904392748044,149.38794162880555,1
-477.69257363350044,364.5212538181815,987.048275313656,408.05655052389045,-247.55423123726104,120.08393901481801,1
-363.027523804172,436.2123080747713,927.039753019259,425.59146367309177,-257.2128890742087,97.68151137388631,1
-425.32247557058867,162.84528714502537,883.8216156087636,418.96210033206336,-186.59436762247802,0.22283058739878925,1
-370.5927500512397,393.1961665124739,980.573086802148,417.8898986148909,-96.90828265070358,134.99523195903427,1
-394.08229499908384,322.47240049441035,1049.1207665411996,457.1421689868032,-133.05821938665974,80.64411265796303,1
-470.4722584785256,528.4683079850089,1007.2680524329342,470.501055295381,-106.41036820003346,33.14290456140749,1
-384.5065344346196,556.2987504193486,1004.1325632270618,525.8133503092569,-29.51637649240302,-24.73814382951106,1
-94.40624480516375,387.35422647973274,1084.6770775216494,406.35656825908785,-56.653026494055034,-12.568685689411868,1
-27.899871769052922,465.53141962161203,929.2374105177973,482.5675936009401,-31.473399860884385,-36.038224082628446,1
84.19836954521249,383.0792799552554,709.3011780678358,501.2588971689097,-51.92719104219869,-81.56379077304724,1
-52.616496989789184,429.46784806808887,1132.864082824823,533.8355105029913,-4.3850379777692226,14.001322475403224,1
95.84440368678699,344.6582986532977,884.5637331767016,425.12649893907667,32.202126154019155,-9.669672603779564,1
201.7240370886377,365.2082348792892,905.4253939303219,534.0755533711366,11.237269023775767,12.48141664366987,1
179.31494783512278,321.39455176443863,853.3214809384323,466.0056051792084,150.71428341285957,-9.240032388183586,1
443.5683578172333,435.90334680328607,889.6330171469631,458.5041767577747,87.07840289762477,22.8672901302226,1
289.8117583438272,457.41857455733367,1089.295387010877,547.1604837086132,128.85930934005697,-16.60876832561145,1
698.5480005107265,288.06275340487224,846.495975246764,339.1185434738636,207.18698170850314,-154.85418776126818,1
490.7437079427713,372.88257078074884,1018.5175536829914,428.7928410186454,203.67030467631886,-5.118705149432785,1
486.6334019655062,238.4673096711395,922.7340554729176,420.5732768522642,257.22953225764684,-54.74489009785703,1
750.0224683447774,163.23076793308266,1166.7224111551136,424.10984639221954,267.1559957602794,3.6752503926350357,1
511.3881095527895,201.4868146159322,926.4696539318047,350.465505916302,194.4172376073936,-55.49863016196051,1
854.7323510763839,294.56754389957877,1028.37510236615,229.23626634404107,219.39910859935634,-38.68732629652681,1
831.2079427370655,190.68238281258772,958.209045423411,139.62354460675948,221.18048862745457,-13.214717611371128,1
655.5381217499789,181.70452843199115,1100.7443973195197,138.76197155497871,295.0131007314894,-69.31644846556955,1
809.6479710416056,416.6274432041549,833.1400741121805,213.62526356916675,286.18743318167435,-84.83889523958558,1
871.6727826121107,22.591745735475826,1022.899639245934,25.847379887626715,331.9718349192493,-115.53311055891888,1
904.7474998828502,167.1667045049283,1036.761984020971,83.36764584236833,262.6210063854617,-172.8293650203746,1
966.9961811817639,170.00555877290947,976.1889563687946,34.95120751790663,264.1575670630759,-85.11704998165237,1
916.3552633227966,185.32592729536492,912.1676922820261,-29.790453290256565,321.50430800348073,-117.7147858366002,1
823.7768473082692,-131.19806361778424,1088.140752892357,-18.29803277190041,262.4880825359785,-88.28827329497797,1
951.9640340390456,-65.27050240122523,1007.9597862376037,-69.73539502878165,261.4238942130806,-160.30620702471165,1
603.4498273170917,-25.30076010811753,843.8506777558141,-64.66731529848757,282.07439100895164,-177.85463188164,1
733.9163004596576,-175.20414726736956,1141.8531345148037,-305.64789743409733,354.4056860468959,-155.54015986299237,1
648.4008298103947,-286.3585417622546,1167.6393027208203,-268.6805756109747,222.828860734668,-120.44313723718676,1
769.9768808453647,-303.79255765363956,1021.6624975404619,-311.28763418201345,323.5089450943064,-128.7967865510754,1
751.1774476458431,-203.5335923027594,1176.1188124867374,-296.78673882649286,195.46254856040835,-163.6290559969397,1
863.5409613131317,-369.19402501303523,963.8537233306014,-310.63817276424646,236.1638628102075,-239.12886003672986,1
719.4875633109303,-61.85453081388738,1019.6131459023908,-409.0283515537498,144.0385044334954,-180.69246277252606,1
665.7952477232158,-270.42114872419944,999.7596159081146,-423.10101152837854,147.9522056010283,-155.0916514770531,1
590.9946265871608,-494.36011630655116,1158.9838978180683,-391.98527603027253,252.1931604679564,-266.828255846238,1
303.7405424256169,-374.14992024414244,1050.2784426895194,-354.97137413711516,195.892318596427,-214.39820286810988,1
275.30298154059926,-253.19888202863837,903.5294574249285,-384.3466875858786,123.61767306700207,-124.92246597247113,1
380.7989987879041,-404.2056730173114,948.0603628173874,-500.52916652919475,135.53444595101203,-202.4224978421388,1
186.29588659593023,-418.63732999523154,1007.8577029719149,-604.2428434374157,112.50826279222107,-256.7332511580679,1
61.39169687452221,-579.5564270192693,820.610750213211,-576.4091275371933,29.001576271981342,-111.18664115100897,1
53.94528094013792,-398.91316392527756,1040.0481386506328,-509.3463853727361,34.98112936863453,-269.3503011498992,1
180.6870604977405,-238.911924277732,831.7341305877314,-570.7453011957253,-1.0090644627985625,-258.1808332752271,1
15.002249675767857,-492.4588088821818,1216.5056067806602,-460.0164419342265,-2.3527511244407684,-158.60463036373093,1
4.056793906073196,-473.0829233579051,918.3782755458035,-511.99249153504616,4.2285038199632154,-202.63259303726613,1
-334.4245854141958,-491.1044367032825,992.6027136405622,-512.4200325978703,34.174484685984766,-278.1489951472873,1
-195.1181032192127,-253.16287813063937,1227.1449745422797,-518.0260098758731,-65.02838441677596,-179.25917206229522,1
-293.35769662664654,-400.3906441969963,1043.5975389500045,-610.0960769228751,-80.01513682911839,-199.97142746992625,1
-400.1873919850145,-171.51271972859772,932.5065981209448,-485.9239147777464,-38.25924043709064,-246.05463484585647,1
-495.3344862608142,-373.95553161049787,1084.0734482129549,-434.3992899157979,-225.21964026328334,-228.87256718386772,1
-560.352907769823,-347.50924215978256,1042.5843658629828,-399.7785492805742,-271.01401591308667,-146.52481904393946,1
-530.150628791927,-179.48471861434714,1044.4198327290671,-338.57128105212536,-179.23312166442628,-129.51792998315983,1
-555.076714086105,-303.65012765990394,1227.2434720446881,-319.3730809529555,-192.79930963594836,-257.4064826605019,1
-783.7670181057737,-238.4465274802649,1014.552119776824,-362.16660291973517,-231.80997027989127,-110.58233461568437,1
-628.4365803086185,-353.8005494027351,988.8491172857056,-337.01937923853245,-273.9412506518763,-206.78353492003725,1
-783.8861514771734,-335.5135371973394,987.234531848181,-288.0303818423654,-414.94030967328945,-79.21673356964895,1
-660.2260291744489,-216.4573749498307,1001.8819049740598,-279.9879489797166,-195.7102423739226,-82.44442961676768,1
-781.0203182434554,-44.047195456627776,1017.5286778933923,-248.09373655114027,-311.1485851906693,-165.84493557947997,1
-864.142953652354,-134.81165240191498,990.8600442490886,-143.882231613211,-295.9674711823999,-220.30153610491124,1
-906.6457780321789,-207.15857869600174,1097.78155496862,-202.7206306765936,-246.82953056004715,-92.49031111977364,1
-875.5616697612945,-304.215663355144,963.8689438032709,-57.56400896362038,-358.8316985606104,-181.8213330406649,1
-696.7940610672836,57.696899879163794,907.54358856219,-90.77001681911769,-326.2828777576907,-160.7121016904107,1
-798.7028004276991,-27.159653054454612,1051.149957536186,129.408772158254,-268.61323469055105,-146.1593176115633,1
-859.1965301238696,25.687558578225477,1118.0640912452145,44.59750255488855,-304.4132877685273,-134.65843174386794,1
-877.7204867233395,-41.33918934193491,1032.2974503617668,115.69225386477152,-276.7974364188512,-157.12104918040356,1
-686.3159089695758,42.109759516293266,1171.2040284017892,73.30701158355936,-273.08901682365314,-99.66336885508824,1
-863.1393856443137,205.19594009598435,1127.951866976016,90.66716298739017,-260.64033661789443,-240.87576635760615,1
-849.8395226988534,357.50097124043634,941.8217966607946,182.21994004187937,-284.6199960109107,-5.390355060179758,1
-900.8469613973155,119.91626272724409,1149.7431683179627,371.5150505659648,-266.9132181201389,-163.12090668769235,1
-467.466080139651,413.3758674171171,1067.8946987762233,273.7714222815639,-249.37574162940268,-101.3913916810763,1
-598.5879711942272,426.13499848385413,1087.9417041137403,294.0791114573684,-161.5500733970153,-69.75808804526027,1
-513.1584604534947,452.82090944485265,888.8419750486448,377.2724073238103,-238.7823304058546,-155.6991273320553,1
-493.30461547607274,580.3069072352947,815.9922255494247,405.9065672569627,-160.5286651325379,-62.908085732293564,1
-481.69562210841616,219.90528475365946,1023.2786742940164,395.2808463184556,-281.0474655143642,-0.9670663326524434,1
-313.6520410022547,373.21490330353043,1022.9074688205702,509.3953742585868,-138.12665613262794,-7.0239985665538995,1
-375.474366701816,514.8874660672868,1032.0785725932683,484.7462351544459,-189.5914137891,-29.313662356644134,1
-362.7321414772402,332.80980284689275,918.4624371683879,437.76396592852905,4.2899096618875205,31.545516289038765,1
-19.349653875701136,284.51542571846863,1007.1253749910893,438.9878625266833,-111.87860888095844,-72.22632821933271,1
-17.79503406453138,374.495367759436,1106.8379333694015,542.9239837560884,63.48362612324753,-91.54455825677253,1
54.797157146211205,533.1710879248645,902.6621161972965,568.5329536334002,-9.132883281706548,-20.167700280802375,1
-41.19677434859998,-35.95547257245929,1102.4906047892964,0.00682818957482628,7.821300015314591,-7.908993816675531,0
-38.99264731108194,54.099240462497114,932.5211894224234,-4.152137679052715,0.3402741107223205,1.1137260184005242,0
-8.954664250807813,19.790989054796153,1034.6427877908907,7.3463754545933,-9.858038086678267,-2.841550979287972,0
59.73814309384689,44.732359378693616,931.3570274259469,3.5147990035220165,-19.782252493748103,0.46934902060369627,0
94.88835083729884,-47.39463586344932,958.2838477254209,7.640297815728595,-15.42801515209646,-6.32755029885039,0
29.822056879087633,-31.714292384470156,988.2015006394514,7.441857103150346,4.2154608353656124,2.6681839629540187,0
-16.956113963501938,18.50305576344777,993.8133659950122,4.578056099257847,-4.9693202511797825,-1.8256897437954112,0
-49.49788962760069,-1.7503805003117952,959.4499568185578,-11.140464501619933,2.5866114785538814,2.127397758576603,0
39.143686747428625,-21.556278478754955,1020.4026423418378,5.507975722736632,4.447738078315948,-8.25653682802142,0
7.468174113559445,18.207014802733067,1000.3589233453971,-20.864776583710846,1.6048962397348008,22.12531039397242,0
-18.001963437849135,-36.403854892766056,1018.6674279855699,3.1237821046657173,11.927351654164145,-12.578681559088878,0
36.56901262874962,29.52110306257317,992.8926731529727,3.3868731792169,10.294574815983573,8.723153800284503,0
-57.15096560368643,41.00790933777422,996.7655697483741,0.7287409801551539,0.731969910016945,-1.5024298879825997,0
59.585374855353244,-4.185897992460601,944.0226935808415,-3.9352985596972885,1.786947168104756,12.292147842970504,0
30.154734247441677,-42.5267639373522,1124.2594958339446,2.647753109779796,12.753907379990148,-1.5171443357722914,0
26.66796223527247,41.97342522592024,1060.9097355877127,10.57368305378225,8.721970000729778,-3.150867311941086,0
-28.587302097803068,16.630375516209877,1046.6564036170535,-2.2272070077660704,10.651719657143865,14.526167454861794,0
-45.81604595367099,-41.846035189813996,992.9812470547332,3.076126681891964,-5.245670137670509,13.522026788671443,0
21.20334307592256,1.9723524120369744,928.2045238065737,-13.158158164275072,2.8100925028180628,-21.325956261548363,0
50.63187048220359,-7.907692218616015,1162.1546484797366,23.079162506161104,-1.8144906924751676,-1.0633700253131497,0
49.77907570010149,85.15863049590189,918.0985471281991,-17.863754653546867,-6.220348055543814,5.827375831738644,0
24.843679525379855,53.48857274919251,940.0151235817345,-23.161438629688767,8.580141953021453,-8.281962729652346,0
-100.92439321943189,7.253187297969081,1039.6587844109338,-1.2205713212127727,-4.578483861824893,-1.5936223214590655,0
-18.529138120039143,-67.40235559700835,964.2659661504784,5.212799050138145,3.2167854137650007,1.6805980596682024,0
-49.75742409266897,-9.075158106783357,891.1467476778573,1.7847666388538974,14.288577078135674,-14.741321320421058,0
-29.296383665887767,16.45533893550648,1062.6421317213742,-4.482246163001494,-6.922503292658964,-19.68923142416083,0
5.171906465405319,102.1038020071872,1013.8679230982337,-0.22278979183713316,3.2208231076698546,-0.1109200394860206,0
-40.65071861300649,41.16399578388526,1011.2880761555878,0.17613251933657315,-9.753660272782499,13.035079319347592,0
33.23513726665549,-27.646041868365103,1050.0912426840969,-4.975708383852072,-7.820034925110369,-7.59703117480287,0
-88.55342765440456,23.57711902091029,908.4427560830825,-12.284438312657626,-20.755880090785332,-0.8606969279089306,0
-7.516023013593603,-16.3348106593182,947.8711152664712,-11.7223375343664,4.643698635465742,-5.505519317084877,0
15.817916076807236,-44.26243430621113,1009.0531371385541,13.032780373160637,5.861658003927833,-4.1241381821648035,0
12.859948517796369,-12.03325872651065,1000.3940092347364,-3.256110521485036,-1.643352058853912,2.1209335307417523,0
-49.66793497909753,-50.793941349498915,930.5728723084394,-16.0027110450371,-12.172826922204793,1.594625068041292,0
-44.6393757745942,25.680723211554813,1001.7356874376281,-19.685042134380538,6.549755842216898,8.107986455917098,0
-49.69313374174267,21.00957714474958,957.1750881295401,0.976703767483354,-12.644984069549656,-17.931064525345768,0
-19.140859480648434,-6.186447313741807,980.1160153192698,-11.840305582225595,-3.998990621311371,2.69294752580734,0
-2.244651506126849,9.12505152996067,966.4942399772883,11.717179147161596,-11.761733365547807,4.875602970867186,0
59.09455464799807,24.04540463744477,989.8737886467585,-5.282970466629791,10.36087651046256,-14.229749252616731,0
-48.50621301898218,-19.87788827458607,1061.8826878756,3.7976763604089605,-9.680457585102452,-3.1030770538490366,0
-30.71615720481472,-35.489449611676754,1048.944477927839,-13.717431292635055,16.087808557343735,8.282296901846228,0
54.5430835301849,-23.146975601262916,992.5029640460446,-14.33151814524712,-5.24662407066803,4.936548476431509,0
64.80315308906981,-55.357840840122584,981.7247031507367,-1.5129922023252231,-13.957892021924852,5.913492417584003,0
-36.199516587130454,-9.769517558851199,977.4025314044061,-7.893385057196744,-0.070449854805547,-2.1560957856802236,0
-18.592894113933276,-36.42308108401714,1015.9762335391478,16.53617268492285,1.3988723283912738,9.96118214911129,0
-69.51109625767313,7.888071964688474,945.1315840514467,-14.769249275319014,-7.393714074590363,11.918993344135728,0
47.500791433482284,12.150236102719985,923.3649720055034,-1.962806513879368,3.0170000890173556,1.7553622957859791,0
-92.18967917403728,-44.51589240099359,996.7961117925641,5.362909095171899,-21.961278210999463,-1.6212397547985844,0
7.152438493947617,42.48059942581065,1034.6428792118718,5.825713188088052,-7.9994050670193415,-19.080021371233077,0
-19.652637853070047,50.081591260428006,1069.6727263762216,7.105491022977853,4.293408228017343,3.7963964838596547,0
-27.805937338039026,-6.503014677681001,1083.4534762913165,-9.425580057918763,16.147787907098515,-3.220281544920584,0
66.27160545475392,-70.34075047487691,1029.2952100582324,-7.36770135947622,-14.152671919241875,2.185340424109457,0
50.47358942979844,-42.24707192967482,925.04920197708,-0.9184476433495513,-0.8743532877718108,5.483196275544987,0
47.47972856822441,-2.9707590636247048,1092.7751657397132,2.2423474453529177,-3.464265060068996,-16.11567359102828,0
-13.132976015808387,-16.81934727055681,1048.0152398140735,4.62483624066854,-11.793691216326172,1.722543864110375,0
33.57655858645267,76.40156796939164,1044.375198370703,7.608466543114778,0.6008599461516361,3.8831200542344964,0
62.475245035307935,-66.63886987398249,982.5280336391522,-7.725687487562407,3.791531187261241,12.302221756507876,0
-29.848714336053696,-119.5152183734719,979.3889627487765,9.134737320174066,5.376299029498797,4.2818624781057615,0
-13.999665093723987,-63.95153681098932,1025.7647160812235,-8.342818100346248,21.840967333804564,5.70507208354516,0
-29.032415127697554,-30.56926236943141,995.3527896693206,-2.3950192202174976,11.168337755299543,1.8641616974404631,0
-36.5815869454264,94.52203425778913,1002.4654165760111,7.688396759688968,-6.082265074447593,3.6311562774452337,0
15.555499557159761,-94.48246460480765,1100.763755523032,12.90644460922547,-3.971953161459876,-11.022697404558555,0
17.3780806901776,4.33488497071983,1017.7834474281615,1.9157739619408962,5.062409893059261,14.473056993918066,0
28.405160256432303,-52.482774945497056,1068.1281426356227,16.406145634882876,31.52056734512085,-11.23494033239598,0
12.14410065751375,-104.10493515944937,1027.6574578189604,-5.482002981667726,19.23445794824953,-7.7461497001858195,0
-84.45915189836309,-23.56318703512598,901.2256114391431,7.510994545073101,-20.650830462563206,0.2845758118315888,0
-103.89059099280983,-16.014890226832097,1082.1689077902267,3.6064789143579494,-8.63493604964934,-0.31203488939083973,0
0.9008436022223293,23.631517292170283,931.6570818359587,5.925672738473306,-27.04391631602775,-6.298845523638104,0
-24.41369212257723,31.666341303561925,1001.1315426338434,-14.055630538562866,-9.849931258170152,1.9868000954740688,0
-3.9533670932278144,-28.956205481787322,975.958310524401,6.96167997159289,-5.176925728692146,-0.8809124402907329,0
108.49682940402714,-71.18413184419616,907.407863421267,7.8358966479860666,-6.786430612941032,-3.1823752774262024,0
-39.05781890655571,-12.990007038375625,1079.926905604817,8.021284586181194,8.62223511886977,-14.162270557926455,0
-57.557686827643465,-141.95393297427134,959.5309589458623,9.567031863856585,5.169465157483709,-2.215132629521239,0
-1.1150141859026526,-34.44427712877028,1010.2379441200892,7.658782794806148,-16.15886787410473,2.9964768783734814,0
46.62174354773336,-20.75501444816848,1035.035030606029,28.146544444725528,-1.043427929868919,3.933070500053236,0
-36.90285418306958,9.06255813010252,1023.0135812491152,1.9484234027013805,-10.196953197088568,2.063617713254507,0
73.10979693588185,22.431788225726365,1048.0993594535921,-2.3701197001262773,7.499002394237105,2.7926783821652594,0
-47.5455364843616,15.926050239943724,950.4151668279844,-6.328802748847919,1.8932830729237413,2.9724427338012402,0
-59.46162325385645,52.69928855914381,1028.6003139150237,-7.047284356108838,-15.375847964491754,-1.449045790814313,0
-22.297185693058008,5.65702285265114,981.8441669422217,-20.074568607450097,-3.883469383011584,-3.0561911106831294,0
31.683051238702937,-34.90998373055248,1083.9337336686283,-19.11640550651757,13.111674978026244,-2.2431897087810477,0
42.97924361717781,3.9900742029366545,1056.9777768012734,-3.8736196455281124,-10.986204251778123,14.205042872710631,0
-5.674032294107059,11.07792368121053,1061.7375957022398,-10.31955242094435,5.9549089763925735,-5.898947564628909,0
-6.608467782218592,3.6139482692144447,924.9889069276533,-7.788370428204347,13.510728924131392,8.861911885847956,0
-3.1319788663617434,12.156172925644654,985.2878747181771,13.56583385827982,-2.003525777941639,2.3184209213484803,0
57.301507207103256,-38.86857424229533,1077.9394592248448,-15.304614097433769,16.296421311127986,-3.726755839519746,0
-12.134937391264087,-94.50050855914715,977.2602641311154,-10.398065310268843,-6.076463453734727,-1.373109657888796,0
47.88958072364528,10.380167570031288,1015.3838326700557,-10.955193888455623,-8.807540896027302,17.98725018351312,0
-36.76005173816233,82.81041260286479,987.8469400559567,0.022879361435040494,10.703651602299297,12.718924219386565,0
-5.540628013954374,-19.412152676076943,997.2039775738893,3.379575282321183,8.913036868697555,0.042298589941515766,0
30.944314901157682,81.91798661354704,1019.0654806132393,3.116528560047783,-15.189108250900677,-26.307301368290634,0
19.418786461508418,-4.741211564043612,974.2608662542629,2.435302041863446,-0.604037291969083,11.277802506338986,0
4.305543412948895,-37.34616425350838,1049.5083119479646,-2.171310749462025,5.2653668367230715,-4.774107061928005,0
-32.49134427487182,4.208411509284807,1000.6414321771842,4.798270353668331,-2.6864575330974256,-18.363597837703974,0
-21.63869417941943,39.69092335719078,985.1311960378447,-2.4638340251454802,9.863765059059372,-7.119732272589228,0
-77.14016091214498,-8.031555976274717,975.7913024375631,-9.66246319753254,-1.7537845589869072,4.915056472467836,0
-0.4644280783907873,15.349053634311888,1090.670384925771,-3.428788615575641,2.7834863464466957,-5.0921336259913454,0
-42.317985994348646,-29.245382670888493,976.0620714239155,3.5947579754712553,23.490757867007574,-7.160434362758403,0
-20.831265280773124,-3.1561506555624126,1019.7899424354873,2.6355081195478496,12.840957939481171,-24.26392070535208,0
-119.34649350978364,-24.793908600507464,1054.8650093771855,-15.656480316055962,-30.07632339693757,5.711794062192087,0
24.365722370271442,280.979159320057,901.446039927907,431.5128140182663,5.5267658736970064,-31.315763809150347,1
114.67510969675806,103.16954881686758,914.31481348722,422.0138743942096,11.449540647746883,-18.946013715958998,1
209.86400042813645,198.6047772914912,1004.5491476330752,501.19491895442764,141.1953083757674,-8.189508321533815,1
226.42397242383845,197.36115358392965,760.8043795686976,507.1586361308279,71.84205259540437,82.73894886713896,1
119.17569555912002,420.29699834549285,1186.8817840543852,474.28593813185415,109.20040283374158,32.113865917276925,1
160.16643588653287,491.84002205164916,938.9142360194934,463.72598248759925,39.801911163419376,-19.46976197001475,1
519.2766057215615,307.0293763213225,1145.3275476042545,416.7156734681286,47.61367684160456,91.85445854790844,1
372.65617663424763,394.7081652286431,1002.5210867540083,322.6462841437042,168.69828754909827,164.72719852708957,1
533.793914468528,299.8886730565312,1107.5343401956898,386.7062827765586,190.60956779384975,7.903404272375688,1
557.3315452033369,387.842106336045,916.3937847899975,421.12973222462495,193.93335951206342,25.55518943316177,1
679.4161715643919,232.2815129061278,1075.9514887486107,306.59475943932506,212.52069221194913,101.9579724011166,1
650.3830418178737,36.24047675115236,887.8756259905608,336.67807437348074,224.38684678193957,58.29411890656513,1
522.7183803658243,100.99881791422382,797.8201360038053,252.1328256548417,214.93321936653203,43.203803530060156,1
684.4264492835522,217.08251678201992,1209.3197932209946,146.787925879373,314.9680901420784,147.08020983164832,1
641.1439843013603,171.45467417492324,954.2366750662385,195.29191051794635,342.7968646308926,135.42470598780102,1
792.6849200335639,77.48569581076526,851.5943335075665,137.90474677295438,336.13679746879023,35.32080510608752,1
653.8826074233955,101.68361296656254,901.5345215152738,69.9822452973541,261.15795274680767,49.73720804337151,1
674.220235089494,127.31517281807142,869.2630217769035,-9.77375301478429,255.3877275825719,160.7476898836123,1
758.7686673743628,-21.969805195129556,1004.4358797515607,-57.1459222689121,314.1630339329504,149.23570169663304,1
738.8980857008073,92.42490742513246,887.2503901046962,46.343088118667126,297.6610814874677,118.92217963632397,1
773.7397148504222,-51.49257725547898,1122.0282896417716,-104.00761874202428,250.2853876994694,193.01266144432887,1
706.6305620499911,16.97459504472647,1169.943598300871,-110.0327823482296,318.93141904008496,88.71290206040705,1
826.7401319089544,-84.93633144127688,1047.3038282160214,-161.36011749709724,196.26297359296223,176.50328766207252,1
524.7396365557299,-167.67814767976134,1094.118186641997,-157.71969592081942,369.2289091921392,207.27380736449243,1
640.3752620909376,-163.3225857252345,995.2629297455564,-283.48289811854124,215.379899390928,132.38426049638983,1
471.8777646662685,-190.25065317483563,975.0928155346959,-323.6446950655786,271.3580103613538,200.33846395359132,1
663.1998310107781,-254.98510891782536,1059.1442151751855,-239.9314944646926,253.50344913475863,127.14806753219275,1
628.6604059162337,-129.04729091944108,940.337094138827,-201.0665481227495,197.16729370570965,173.53749063555054,1
490.04013051295294,-250.5416192081865,825.7778307364724,-363.1404933872515,152.5910170760846,181.92091619642966,1
609.112808663173,-230.62745299272981,762.8340639141107,-261.254144066449,204.25597218817404,139.25862097880935,1
474.18528868722325,-297.8976455559602,933.3151283048436,-378.432323932871,140.0841087838019,160.48263846157803,1
335.4331537355331,-476.85919043656287,1014.5836470215384,-381.30987305122625,175.97201252202638,223.99715032331676,1
379.24946076573013,-402.6001363150614,1083.9663864431188,-497.8175219070149,83.91063283800491,136.76998797473823,1
395.14275700798,-268.33397808241045,1048.7305237044995,-392.6962199657708,62.79198115795726,204.06433363149986,1
212.92735877837148,-288.6663936490148,988.4775767447802,-478.76050323589635,110.86464704194628,231.77020162252944,1
95.3365993531721,-387.58513142142186,894.1559366358347,-594.4138992268737,70.31737190783666,219.40442793270353,1
123.96660308883008,-581.8809052880831,964.9150569923526,-587.1324446335034,104.83169311635754,135.3223492954673,1
158.2033708547655,-295.0709393701402,909.9409647463938,-536.2182060108393,29.662450400784856,147.7421280010671,1
-22.41454569295491,-437.9406628192466,821.8841585534367,-591.102359403675,-0.8097271567380151,161.88044254368938,1
-153.06890387157057,-317.33834960326783,1117.3442276632445,-489.84229269903983,-53.37657307914132,214.63223005706578,1
-297.8646758078096,-359.1622588114145,1055.1885971822153,-435.4993379313453,-157.13202546227336,150.89139662952493,1
-313.27112689903436,-363.365908596585,1048.0744579767984,-384.67783844309326,-108.56749513230037,163.08311834750708,1
-172.1699492061744,-332.9551356433875,1126.7651511187973,-431.8563130758688,-164.61195121422026,119.97815989956052,1
-501.9666646701364,-283.12240301752365,1118.8596823087007,-337.4735378455991,-86.78893534746697,243.12192042264974,1
-462.06270057640984,-449.23364313698335,1085.0079332417554,-389.69080726507326,-144.85561400116305,202.36946172320455,1
-426.1539485423084,-187.13494182087342,1129.4985584816955,-361.11713968295743,-128.16757953667076,206.40386571731798,1
-555.7850443157438,-219.57160421287114,860.5504931140738,-310.6630490980491,-249.21812214543223,192.37374234319603,1
-641.8040859562027,-217.5298044927698,996.6074774072091,-415.57620135458194,-186.16209554258907,146.25795996017956,1
-512.8856572837788,-248.46278712854817,1039.5420985388039,-353.84196283013154,-252.91545197634701,148.98520816348946,1
-554.8261351000333,-54.840582616379606,919.4828248257123,-220.10010525564343,-346.6171415350592,108.66920999931637,1
-771.3776605705394,-330.2508689440724,841.6411610212419,-219.35005439311036,-261.8507519838802,183.51509659929883,1
-636.7178323113442,-139.4922243931248,1065.7763176150374,-207.8506742633481,-321.74951463043294,213.31301488642265,1
-789.991165081788,-229.50272833175063,982.2082124195601,-212.95512867929705,-292.6832960521201,173.22104581357712,1
-716.4326281775607,-194.66173668251662,951.2294627051256,-75.3648636568154,-254.4971384846238,255.09393639202437,1
-648.1712381942244,41.3505941675613,861.2131449544198,-51.75001341947669,-287.51864279616524,118.8484259504875,1
-758.9255443340003,53.75505278676321,1050.0831591004212,-94.09735243557704,-251.28840397716823,109.31813973690674,1
-758.1606212139509,-38.50255050222255,978.1133748264374,28.25978720801425,-341.94608419850005,233.00956284407926,1
-960.5694551035014,-35.278465709053705,1037.021188994174,59.35515769583566,-294.45153727278404,127.19441497637376,1
-730.5774111783692,33.86543339357234,1139.3181257934907,112.0873094215375,-243.24775900898487,75.84207858959921,1
-767.3303866816353,59.010244471085244,899.4398624310534,127.61662685040297,-309.22016972220734,150.78826974539083,1
-848.8432389996531,292.42068909041154,910.3667341407938,159.29327415999646,-236.21342420619118,83.14717642556428,1
-633.8063938957353,28.21271893627852,1145.211769918256,186.71494474529732,-297.1608843591091,90.18530573486366,1
-610.3468648610756,122.23992451170227,925.0642310577223,211.30526697834676,-315.8471436155507,189.45232717798552,1
-715.2152410130444,292.1341286598488,1020.9470083647773,207.97015906581964,-245.15283385622095,130.73333704486336,1
-640.1194695675036,355.10494938142904,1102.1515392781864,336.1533178668565,-253.97651484066674,30.488561656061854,1
-641.0117244086467,280.58503054662685,1054.5786713532354,212.60412081422965,-215.9176594690318,85.18442345056123,1
-561.7011682559325,413.42514859593825,1042.1780074250871,415.4145365663222,-209.3166867368314,116.8175396354351,1
-320.9886291643303,436.8097932843435,890.7858406571268,363.489055639284,-197.3910915531999,86.94738963414723,1
-363.0100529083552,240.95001647436516,1006.7838513916938,298.8058289330409,-88.38629899047534,29.29732938561494,1
-370.18147181488825,310.79463381830067,1114.6027575013416,278.75188435118554,-140.53908260579288,41.96014068643752,1
-362.6182203582924,528.9053830441776,911.2670541144229,477.09162853023156,-100.14098705667787,102.57918388215006,1
-323.23489293384597,295.0098944802416,1109.60699074774,474.56672313049626,-172.61819488802726,4.720811152895976,1
-155.33984660378107,461.523854994825,932.0769346807045,319.20711785089577,-45.95890799095639,-37.202720119980924,1
-331.8135022508006,101.30586195908285,1081.3980860197742,479.7089703140907,-59.645755583282124,85.35000838127799,1
-1.536249496899103,550.2622193794983,860.7264527833004,476.5890412420639,-105.1022433137723,-3.5127423842253966,1
-24.86158537666793,452.66136372630706,1004.5563881141899,511.17035691399576,35.17200665694464,107.74643386915713,1
33.73905227059353,294.5299450406688,1024.6083615316409,438.20257108278497,98.36461298819825,-22.117276155809545,1
73.52198565116002,337.4068823423852,1071.8417423471642,465.3907486322682,16.27959554115028,67.36880564803668,1
108.36112792241181,381.30404024346547,1065.230615161023,383.3531618208892,96.13309234810416,-76.56869815124028,1
338.7942625394947,272.04168320072006,1069.2769031848861,508.5923110287266,138.4431538358292,-19.12022946415425,1
294.1244873061538,298.64077084713006,1147.1034690817105,403.52705866006636,66.10032281348211,-6.234774503732723,1
296.1541854806887,246.75325547049397,855.6395737830235,396.4817144480286,135.5728142946729,-35.09649217828751,1
526.7760328397565,377.5290762435182,980.912778044682,389.89241172186183,185.99142272632886,8.712466726978896,1
497.12668856540193,258.7273629360367,900.7133998914454,303.9125962957919,213.4463398828861,-33.58573669835294,1
591.6830951350438,271.4318200591447,1140.6934745891751,325.6990164330364,246.28212257968016,-71.88080975956603,1
518.8178874044333,320.2139672117311,1040.9636118683993,339.03132901559854,219.5759204912541,-79.1746162702435,1
860.130535345917,354.21931931594344,1072.2826894985512,295.7975330441093,281.3515362568504,-58.58094522556365,1
661.1962571689751,178.6160175152174,991.9082662337312,98.6755747960159,255.38514036046635,-115.95700208484382,1
850.5057916286357,182.61986077792167,881.1036580465038,219.88808915112796,204.69298372392697,-74.75476099527137,1
748.1479946729792,246.91504182714675,920.9118208305434,187.70788630841656,199.0892241893335,-70.0696552599997,1
793.711200754232,170.0971299089867,1000.1619031356942,169.06680183941447,356.0233451410243,-125.93391078767057,1
773.2560626120734,-19.55579057498518,913.1739038401668,114.49908230778021,337.53455916831183,-130.83211946545757,1
748.0407667799185,16.283856688903434,946.5243329155677,84.86842649539912,212.02609430033436,-60.10293592478358,1
711.9186183611057,96.67865116024633,873.0001402606124,63.581455901381304,323.0249816349236,-110.85384652615603,1
680.3860809304002,16.78727520529842,881.6943815265611,-22.69052429882069,341.40705325547145,-95.91471277669555,1
777.2453726412966,-138.24675826666882,1064.5587712174192,-49.20460048357212,172.39556974527812,-102.06602552487894,1
763.7607721814079,47.16641210987446,890.4729481157195,-248.77822166094802,298.81749562857897,-131.81933229330133,1
582.1996393415284,-202.72868462661378,1275.5217743719902,-144.36204460301713,315.8650931901318,-183.8736757930164,1
522.04966191836,-152.96892313509807,973.4395439713895,-187.30849464788935,266.07973517732904,-142.8049361531219,1
690.7534057981143,-292.454540505115,1048.6184791561939,-301.8426477173564,159.8819723509356,-123.46328111030451,1
726.2018421653981,-200.7395365074033,860.4551495244928,-275.3955470337034,238.01002971316214,-244.339525147749,1
566.5935173219663,-157.34525757926014,1142.7305364289216,-294.9142501214545,275.9576883645792,-264.08168358330414,1
666.9454534764762,-328.9901974747374,1030.7345616707971,-318.3511359913569,289.4695408941704,-215.63892238553967,1
620.0493198697701,-300.8194491298657,984.1694521990336,-345.0310981043757,164.91342186880746,-175.85894709714864,1
503.4032489001004,-271.104046863512,1008.4505145692863,-323.4578992322311,235.66740595949912,-230.6147440948494,1
545.3497468472063,-434.15027051721484,1058.7855888137735,-357.34121806483125,74.89187858169208,-176.05177576960867,1
357.21145597501015,-409.46858725613504,1135.0852330699006,-443.25880190891405,109.90898626230533,-179.21614069130038,1
415.37441439408514,-363.49244509438364,1116.6370545669251,-403.3928618167136,20.03363597705747,-211.45333972125087,1
230.9529411588789,-314.6767341534758,737.5182943625889,-318.8422277904746,133.30742502326711,-179.1907374425663,1
343.60157325860234,-138.98919875624375,1087.0746644588403,-412.07270399181135,90.35372233711584,-195.0380309313152,1
114.59157443736336,-464.08876345763827,931.2985900300503,-537.0386465693757,56.500817802899476,-273.19253898129125,1
116.8515745945281,-390.5577943168805,1014.6935298386687,-502.321635131949,190.1896562426733,-121.61928339235597,1
-91.79124009969692,-366.37109499586495,939.1993857062677,-530.3029447828227,-54.859663974728996,-168.34749532225797,1
-100.80103341573218,-292.87530133603434,1099.3782214530438,-410.88323918687956,-54.76327788517272,-166.19004932562015,1
-34.51450051592639,-434.3425510230429,922.8228042607125,-395.7390233421508,-24.971843947045237,-157.8266908657847,1
-244.37872002064563,-503.4060109384035,943.055022550789,-475.7119177217265,-113.50539067801787,-189.45140055249107,1
-394.2953204235372,-485.35934628449354,1067.0911248276875,-429.3238328014977,-103.41305938323985,-238.84995871681542,1
-389.8775062466493,-399.93965409054954,1064.4518491645292,-399.8804286591446,-131.58270705265485,-244.30919893769004,1
-320.0310759776097,-431.6810835559561,948.1747361138798,-363.6778403930664,-87.58843053534042,-177.08127593332787,1
-531.2529674223135,-312.4524047155318,1106.2657290787527,-429.3565281653201,-82.67212821887186,-118.3636232156447,1
-292.09921357378147,-284.9923151530943,1058.7391699806012,-317.6187928834204,-148.08802631136834,-205.7624434855898,1
-554.5223547650683,-271.37257632681116,870.9438578053781,-370.5205724810528,-134.66461924561784,-287.64627056172344,1
-403.84047993413503,-160.63128092989663,954.0235384169524,-308.668862052825,-207.03969074819662,-113.65448037988095,1
-502.73201508812053,-388.6024283202904,1058.7262413464177,-316.24490776153414,-219.30721187907355,-208.32573501703456,1
-465.68267621220565,-118.57210940667073,926.0228836027032,-340.67304283403877,-257.41690219766656,-146.65354774936552,1
-651.4792305572398,-69.6867175231756,1078.9919722180853,-191.52154871235456,-234.80459706696536,-234.00976322959283,1
-725.3349540381848,-60.0449497195123,994.8477071475354,-179.21954152004818,-278.33726097745216,-211.9128982724752,1
-743.4143582082866,-105.0383541522424,934.4312280538556,-179.10014495730456,-318.78493905194773,-100.05610385719895,1
-780.712377860977,40.396824472664875,1152.8747850540908,-133.1338121314145,-329.7395809986884,-255.6355783112641,1
-913.3877628710562,-210.46219517829905,1137.8469627461504,-84.15180163980105,-265.3830765067203,-257.41856657415633,1
-895.5237213089795,47.94187697024414,1028.6774112382586,-57.53392630275317,-260.16923172679316,-59.4076265339141,1
-801.9331794640846,-1.2305634887026216,1019.2596918731305,109.55312021968786,-394.9042114286565,-101.5886583907923,1
-789.9410730499582,81.16547523484986,934.2627446005275,27.691197831147534,-253.857222270924,25.581559925741146,1
-690.8288007709239,-27.83417866371059,957.6240317977297,47.449148290764555,-376.6711351907674,-140.65442434319195,1
-686.1086360588906,-38.366372564523985,1104.8482651050592,133.99715870733138,-319.0495479317684,-125.09456011977139,1
-581.9919019461166,193.8714091568159,1000.8783654898148,136.44399145192537,-271.97593620301166,-137.2673758326851,1
-929.5282088109319,355.34886976979317,1015.5324999199402,205.91484475313615,-270.2357014545106,-141.9002343924648,1
-709.8312398952247,20.74597747731488,1227.7086498053304,160.65649693641376,-308.5973521694113,-120.43809200021478,1
-529.768209406334,210.42334996807406,876.3864203969538,319.9137796277853,-208.3050670563103,-64.6114502185033,1
-549.7199119417891,475.2298448545713,1218.5094895036113,255.87180798377517,-149.7994265864593,-65.32227455719121,1
-529.7433822585925,91.73385331562187,982.9614234611804,280.54151153542375,-174.10905864377884,-23.725937164261772,1
-741.3953777260092,282.094278293923,1112.1861504794251,340.57099304660477,-162.06547846920182,-52.38539162873475,1
-450.32924542182036,278.5089505502474,878.3419195864291,320.09635214515134,-144.66523055794448,-61.51175010438679,1
-445.4966328705305,282.45027964470364,969.4811154519248,452.14778526525487,-177.245753373971,-121.96927708452799,1
-301.40268824532143,321.27193883063484,1003.1395865532777,501.0061217410298,-140.7365933570231,-32.79189490538625,1
-435.1469307289575,334.3157832455181,1060.9526045208602,360.73313297638606,-107.91137183619686,-34.463667623134064,1
-252.3872388973504,472.02267425844207,1033.443851484852,527.2042526318132,-145.0508033338907,-24.88983351514196,1
-185.53143334959262,270.82198346465805,1095.6295002091347,581.1535826343837,-72.97037100199967,1.437740036470462,1
-121.62777485702762,313.17998746677927,817.9239722197983,437.989423639074,-117.96085559525643,69.30631366981589,1
-76.77968719153047,354.0402822025896,1088.9153824787807,422.22901729696764,-62.609776466599286,-4.552760746116935,1
51.438449571174026,25.08425225843941,1012.4162571257941,0.7811773523601635,4.002358555267752,2.0165290512925464,0
-51.498613738846785,2.303961081657567,946.3155670541124,0.8108254290082372,-4.806479414882414,25.393816227828616,0
-1.994719187585596,-70.21197831307944,993.2909894661537,5.19358745637888,16.733639461525236,-5.894523999387184,0
-79.121398701182,40.84185057154906,930.9700647050174,-4.36155441507485,-2.5762048551099404,-0.6963345330010817,0
34.45822285371678,-34.181714114319384,986.313537391662,-0.14270352949388504,1.4959795751878804,0.9782717470792267,0
21.80028876112899,42.19197548208686,1019.6317057825484,4.535855235092185,-15.822231667464777,0.5022769916568044,0
23.97537740008043,36.44705972852251,965.3824612883103,-6.59039274888645,-5.741006752835983,5.364138998913433,0
51.69405274621043,-20.37300536458008,1045.3981156813525,1.234798091645942,-1.242857771624363,-2.11384229817969,0
37.33056823010786,16.278890839353505,1113.7912713823819,-8.522246429973242,5.181017020299757,-5.292010098115129,0
-43.46434934943219,-0.5433568517486072,1006.8676239703518,29.181735550600926,-1.8414581568320207,-11.301787294846834,0
13.650535874719285,-103.73200187731841,995.4021608697867,0.16025282295160426,7.946003829452114,9.736222494278469,0
-25.17848094538587,-7.53070073149665,961.6939584694665,-11.280625548076939,3.0989477938063454,-12.735855485965992,0
-20.731345028593157,-49.75869799496187,1027.484159314513,18.01430099266488,-13.015879828033313,-18.530184828975692,0
-6.24434426750337,0.784889797887919,1010.9329653378649,-4.463205152343449,-2.0063929882543183,3.675104105406022,0
52.02154463224195,-97.75243851591414,981.5530280484269,2.138087939410634,-9.179761046107359,17.311696317672997,0
-31.77049401143685,-2.064634350364142,1027.8011048421145,-5.912847888018945,-18.465730478044172,-4.286545269165333,0
51.47202779635202,-16.84475633925693,957.6782849270511,9.256722095027216,-3.3077489602305272,-5.101608136502173,0
7.4728044831654765,38.53751048093937,1119.0856765866274,8.272361076574231,11.598399663883443,-5.0596619898785535,0
-51.293405298473814,3.116567480956148,1005.3584957629798,-10.785127413645972,-1.7529452990401284,3.993176017191309,0
18.019669750904008,25.21439266921362,1014.5482365068722,-5.070086592700558,-5.1390062664884315,-11.98951397993876,0
89.23875195925474,0.6725182309646504,988.7573472102574,-9.287920814524588,29.35657902327778,-10.733280322228955,0
-21.44239628030367,20.791841814303027,1030.0106482872138,9.57932055215684,18.076085077692632,5.061576554607123,0
-52.80153999833338,-12.847256256089077,1015.3916186256943,20.682260415058238,-13.978054784242971,12.025765052252275,0
8.995718477320839,41.89152676147403,994.9002641682034,-8.424326301263264,7.50872779401332,6.5443102710562115,0
48.602848286986095,-0.6652317689317655,970.0088988340075,-15.587869950238415,8.193732681394064,4.2388948244398605,0
-48.28913164319796,-26.928683664831212,976.662059402428,-14.829844319824181,-8.176823966051337,-11.338303568063541,0
-20.623950594396835,-36.93487491647814,918.6497539566626,20.225902305694813,12.525407310292307,-7.790194215199856,0
13.621069832680494,20.87325449106475,1059.554292738674,-8.186050266600786,10.92106783982426,-5.479053042069351,0
-66.79312020843066,36.20682796572486,1064.5379212061214,25.879089735306845,-11.997252650902135,6.989196850807888,0
-20.490062189676653,39.16793552620156,926.4755224384375,-12.62769775698564,-7.758748231664838,0.7896404566808451,0
-32.05406332691777,32.952717195670985,1051.3447309128958,5.995775412453558,16.18787639660868,4.15826629455343,0
-60.844835517008356,68.168825676917,969.7421882197001,9.1041849968557,15.737342165551063,4.566880107303992,0
-74.80794065823248,-45.91060832548958,1066.1372233442569,-1.6912268564281638,0.7957353494216584,7.5882441616360925,0
34.81614310401617,13.939990619273035,989.5665814389768,-3.126684457323573,8.57898825291343,5.535695310677933,0
-12.865000030889481,54.10561564965703,993.5482942435108,-8.516621743343933,-7.589706989033448,-9.787408363097661,0
-13.62050083018436,61.68621391680965,959.7452409484746,1.884757610181029,-6.566893456274132,-2.6030904127143755,0
-75.5020605992626,-11.02691145782687,990.3147310097519,5.402879440356953,2.2328091325537054,-11.983921249520453,0
54.20991220217714,10.515152011099769,1009.9196758588744,-0.09182353385138937,-5.177574472222197,2.178023397487261,0
23.77942179642912,-87.34478456727774,973.0619581326952,-2.5494697040358933,2.561706056942781,11.93311005927126,0
-38.58704072983912,-24.8980923408921,974.3732944676725,-8.015275901045415,-3.4718649511226247,7.708022199879712,0
-52.69177476821728,21.39071975764516,914.9048884990832,-5.61337996442206,-3.294893002179861,16.748596729140647,0
-13.7401152376344,-110.06217367254591,900.0555546569375,0.3402958634668099,6.137708557899087,3.754558576272528,0
8.378505290049516,58.112979875283344,973.0204389631434,8.949105560268253,-16.320148850264175,-9.049478329380662,0
-90.35206974659081,-13.742265033489613,997.6869391366829,1.141014922265199,0.6188335288713521,-9.27553330811728,0
-9.512042220660783,-74.87233343028743,1068.1614487566126,-3.0362607289800096,-4.888861190436912,15.889403284440828,0
-62.11232667746146,-56.279355701598455,945.1889837565717,-0.678713816994819,4.316316296375973,7.3967546811783365,0
128.59976587474844,-112.47162271003819,1030.4367794562208,-5.571305725722312,-5.864151488887734,-6.197721282538776,0
-45.438483540398664,84.22624173017259,1042.1148663506951,0.23195978557374822,13.510157524870003,-15.125289652988755,0
-66.53525656654631,-108.89838660973439,965.0292729938357,1.616985267047529,1.0285857793233408,1.4934191105988046,0
-70.55284155330409,40.1577371307011,1011.98137591195,7.330542814659985,-18.92762177590052,3.1149085879778986,0
-59.38826199587635,-19.866162627568094,1026.718244931819,0.9109360625591317,-8.515399797793188,0.06273156184418285,0
-76.57676576218215,57.5133697949148,989.7357990251875,11.18549944255326,-5.26531687096043,-5.235759884065829,0
-38.20933933189232,43.80869658465377,964.5284421335762,6.4459543241517645,-3.8245239766929022,-19.759632998916196,0
-28.515703389323306,-58.95541071814241,1001.6951361841169,-11.904077356744903,9.259751007146168,-0.9107586035302723,0
-8.879799737936949,32.79460688937913,1048.1953467037931,-0.20098751769651646,-7.712002995492906,-17.739696161121294,0
-34.302487851759,-30.86061233239808,1005.3528726496148,-3.4514688113802716,6.879329720514281,-6.129832712706895,0
-2.852058342647088,59.199372159844465,1017.0912606977483,-0.6003754168856451,-6.01944441935177,-6.332313967149771,0
-42.53066264759739,-27.05034328914497,1037.7832919372158,-2.218882712922687,-13.497730693812311,17.681692930597833,0
15.998259557258152,-70.34717002565847,977.9075536379588,1.1088638282841785,17.04592093297377,-11.081124582588693,0
48.80203596779733,69.97432134861715,968.5672847462715,-2.7751361886023345,-10.363092473737703,-2.034611410803049,0
-1.8294987171465584,32.98249990411853,1054.5091735510223,-7.480960646216471,-19.673250642259944,-0.2124477927624213,0
14.676876498432026,12.470884384252082,983.6663376245479,1.247520996639345,15.154448083522476,3.817341689625093,0
-18.66842125015422,-25.00989085479979,991.5073821161135,16.367399618306397,-1.8330070952619728,-0.1979434452070797,0
-24.115678546815147,54.949167872098236,1097.9918627372338,4.506130494313883,0.8277290378542574,0.3678283317423478,0
-119.21533943928728,37.25754321424087,1006.7083207997922,4.28342050660725,-7.114621940837048,-3.8445687897709164,0
-20.55124682515865,51.08114920365195,981.0620081698453,20.826603221097976,4.308624190150374,-12.756826599957316,0
-6.427314662597842,-32.58375610782078,890.2808765089987,15.994709401137895,7.031425422200039,5.3320731789931255,0
8.270183014985212,-69.10087843462188,975.8191430222282,8.417807747840127,-10.512200297825027,-25.317693162508135,0
-11.3553003890463,-7.08787770137693,1006.7781708207355,7.285186435145362,6.376058122312086,2.587698052439216,0
59.77656940433547,-75.94848904066573,1025.2290907238696,6.265383633369424,-12.395622860802396,-15.028706086823894,0
-37.29710632378006,-33.077072125764595,1037.6709731751216,-6.145387836910949,-8.56348518281204,-6.116337366945591,0
55.93161670771059,0.6521687188476066,991.0374487321544,-1.1000549870105147,12.920603343265228,-7.491717266032419,0
65.7754145470052,10.524814946075182,991.9790309012326,25.009004979342816,-10.556394897985964,-3.5368575956700603,0
-61.62156195820001,47.62309852680847,1084.459446682584,16.699227814046388,12.239487531460046,-1.9762046779596563,0
-18.262048874492326,-83.55848862470326,1101.7936767590895,4.689780781484677,-4.9195690486948305,13.280568889869675,0
-48.63822583800005,20.331101711133705,991.3685432854583,6.38677139880301,-0.6357353918612146,-14.509278911112242,0
3.778818633501891,52.44320709376811,998.5391797073007,7.75115121589086,-10.455294856740531,-0.2626079326985214,0
-31.22552275442887,37.34904200523549,1001.5745781130997,6.900736763366125,10.87710426157866,6.916185751213884,0
13.65592171468221,-49.91061292557026,999.860694466655,-5.330904020158331,-3.4406395670422656,-3.7453415075025087,0
-48.99627873911223,-97.8669294566995,966.5928475836116,1.9337945192415906,-13.481770454274901,0.15682236471624342,0
95.01342121554823,51.15282776261196,1082.1770754560264,3.911278769327262,11.67509822986446,-7.239647304677874,0
-32.21701335109921,-136.95701030687363,1059.307273702115,15.403239798198861,-5.5317724534726995,-2.539517063972351,0
-37.69310568454807,19.13267757387458,1056.246627265162,-17.42771973881041,4.094385306422523,-2.766717717191454,0
5.669719598334468,22.949700083714546,990.589878061359,-1.0358685340578062,-2.138751675546389,9.703162017882814,0
20.937998006374826,11.029176886868038,936.4524139453858,-3.7857974321315417,8.986691603391742,0.37696573123922905,0
32.97657347945692,88.32559001638168,1051.9303034604409,0.9315833769974234,-5.109891701957271,-25.535495960558983,0
-8.419246123642626,-16.30062479084246,1019.5183097197688,-1.5390522697468758,-3.2038505943679434,-17.793989305072206,0
-46.998391457503324,23.832552040027874,1085.7953815566348,-0.9752538374562343,3.278110735741233,9.524781569528054,0
-40.54469681001249,18.340702164272113,962.9754946833921,8.648244384910113,1.5140304795173263,2.984518139814398,0
-39.12992987092945,35.351617980539245,1104.2356460615508,-10.07911695428206,-3.3975900764752383,2.3160747416809184,0
39.32031059979082,-27.977314264473446,858.348485492863,13.59189494164025,7.605061195841426,-17.42947530486665,0
-30.378439588977795,78.40912147636631,1072.3898209228933,9.386400226789446,-1.7611243395986265,0.8298741881250997,0
-6.546290256306325,56.41198916344188,956.2078796752445,-8.057996548842047,10.102745868360156,-0.4436145551156163,0
68.9233677726904,-33.575610349027286,997.2610819830587,-9.224129848439533,0.07362681423567134,-14.78546936998799,0
-24.381671047748142,-71.81269324640589,1034.696161659563,7.165893397596516,-17.30262730484345,13.338857455005728,0
124.8707563209927,2.3003193368170476,967.9442869887678,28.243305910030465,-13.189684983025106,0.20106466869098388,0
8.981113631596171,67.25738102262073,1017.9869487563394,-4.986338957884514,-9.511843703879562,-3.4182182024613557,0
-50.34636804725721,2.3912659892341472,971.7901910069756,-14.940377932897507,12.551457883749038,-4.976725234290394,0
-63.406840248765626,-8.412956724377077,1003.418578298383,-17.464667255790335,3.316476671257628,-10.471575686902646,0
85.55144045953938,26.19802560383674,980.0050004945342,-7.451677703173505,-1.0496770756362395,6.127907415832897,0
